"sub","cond","CPNum","choice","rt","xAr","xA","pA","xBr","xB","pB","swap","layout","posXY","posXP","trialNum","layT","xAaf1","xBaf1","xAaf2","xBaf2","xAaf_m","xBaf_m","betwP","betwO","withA","withB","fin_fix","fin_fix_o","fix_m_pa","fix_m_pb","fix_m_qa","fix_m_qb","fix_m_xa","fix_m_xb","fix_m_ya","fix_m_yb","dwell_pa","dwell_pb","dwell_qa","dwell_qb","dwell_xa","dwell_xb","dwell_ya","dwell_yb","fix_n_pa","fix_n_pb","fix_n_qa","fix_n_qb","fix_n_xa","fix_n_xb","fix_n_ya","fix_n_yb"
1,"poor",0,1,16.3119433941,4,1,0.032,7,23,0.018,1,2,1,1,20,4,5,7,5,10,5,8.5,5,1,19,7,"pa","A",241.493374995887,301.634999997914,226.504199999571,0,192.454166668157,304.225800001621,636.580000000695,255.372000008821,1931.9469999671,1809.80999998748,1132.52099999785,0,1154.72500000894,1521.12900000811,3819.48000000417,255.372000008821,8,6,5,0,6,5,6,1
1,"poor",1,1,4.57394491458,11,14,0.056,17,45,0.041,1,1,1,0,51,2,10,15,5,60,7.5,37.5,1,3,1,3,"xa","A",199.856000006199,122.134999990463,0,255.37199999392,336.795333335797,410.815333336592,0,0,199.856000006199,122.134999990463,0,255.37199999392,1010.38600000739,1232.44600000978,0,0,1,1,0,1,3,3,0,0
1,"poor",2,0,5.81537362692,13,28,0.028,6,25,0.036,0,1,1,1,53,4,10,5,6,20,8,12.5,1,3,3,5,"pb","B",172.098500005901,263.69924999401,0,0,384.908666665355,281.279666667183,244.269000008702,55.5160000026226,344.197000011802,1054.79699997604,0,0,1154.72599999607,843.83900000155,244.269000008702,55.5160000026226,2,4,0,0,3,3,1,1
1,"poor",3,1,4.42881761279,4,1,0.024,6,25,0.013,1,1,0,1,2,3,5,5,5,20,5,12.5,0,2,3,1,"qb","B",166.548000007868,0,433.022000014782,166.546000003815,425.62033333381,338.64699999243,0,0,166.548000007868,0,433.022000014782,166.546000003815,1276.86100000143,677.29399998486,0,0,1,0,1,1,3,2,0,0
1,"poor",4,0,8.25662385965,1,0,0.041,3,10,0.021,1,1,1,0,38,2,5,5,10,15,7.5,10,2,8,5,5,"xb","B",144.339500002563,222.063500002027,111.031000003219,172.098999992013,306.44619999826,266.47500000149,166.547499999404,266.474000006914,288.679000005126,444.127000004053,222.062000006437,344.197999984026,1532.2309999913,1598.85000000894,333.094999998808,266.474000006914,2,2,2,2,5,6,2,1
1,"poor",5,0,3.59693143635,13,28,0.03,16,17,0.022,1,1,1,0,64,2,10,15,6,10,8,12.5,1,2,1,2,"pb","B",277.577999994159,216.51099999994,0,0,277.578500002623,666.188000008464,0,0,277.577999994159,433.021999999881,0,0,555.157000005245,1332.37600001693,0,0,1,2,0,0,2,2,0,0
1,"poor",6,0,5.28798523624,8,13,0.034,3,10,0.067,0,1,1,1,57,4,8,5,15,15,11.5,10,2,2,3,2,"pb","B",177.650499999523,251.670999998848,344.195000007749,0,466.332000002265,488.536500006914,144.340999990702,0,355.300999999046,755.012999996543,344.195000007749,0,932.66400000453,977.073000013828,144.340999990702,0,2,3,1,0,2,2,1,0
1,"poor",7,1,6.44143087338,12,7,0.034,9,32,0.037,0,1,1,1,22,4,10,10,70,40,40,25,2,4,3,3,"pb","B",251.670999998848,284.980333333214,0,0,466.331666668256,229.465333332618,316.439499996603,133.238000005484,755.012999996543,854.940999999642,0,0,1398.99500000477,688.395999997854,632.878999993205,266.476000010967,3,3,0,0,3,3,2,2
1,"poor",8,0,11.0905718883,8,13,0.014,7,23,0.022,0,2,1,0,41,2,8,7,15,10,11.5,8.5,1,5,12,3,"xb","B",210.959199997783,233.166333332658,149.891999997199,0,383.67533333434,255.37160000205,166.548000007868,0,1054.79599998891,699.498999997973,299.783999994397,0,3453.07800000906,1276.85800001025,166.548000007868,0,5,3,2,0,9,5,1,0
1,"poor",9,0,6.93038381149,15,40,0.066,7,23,0.115,0,2,1,1,48,4,10,7,8,10,9,8.5,4,1,9,5,"pb","B",164.696499998371,202.076800003648,0,0,302.006000000238,214.660666664441,111.030999988317,0,988.178999990225,1010.38400001824,0,0,1510.03000000119,643.981999993324,111.030999988317,0,6,5,0,0,5,3,1,0
1,"poor",10,0,6.86432169992,13,28,0.026,16,17,0.019,1,1,0,1,7,3,10,15,6,10,8,12.5,2,2,2,3,"xb","B",155.443000003695,222.061999998987,210.959000006318,133.237000003457,233.165000006557,1173.22999999921,0,0,155.443000003695,444.123999997973,210.959000006318,133.237000003457,699.49500001967,3519.68999999762,0,0,1,2,1,1,3,3,0,0
1,"poor",11,0,7.2012921347,9,32,0.036,5,6,0.061,0,1,1,1,46,4,10,5,40,7,25,6,2,1,2,5,"xb","B",847.540999988715,247.044999998063,0,0,532.950500003994,188.753499999642,0,0,2542.62299996614,988.179999992251,0,0,1065.90100000799,755.013999998569,0,0,3,4,0,0,2,4,0,0
1,"poor",12,1,5.75876993696,7,23,0.032,11,14,0.024,1,2,1,1,18,4,7,10,10,5,8.5,7.5,1,5,3,1,"pa","A",111.031500004232,155.443000003695,0,0,635.654999997467,473.733999997377,177.649999991059,0,222.063000008464,155.443000003695,0,0,2542.61999998987,1421.20199999213,177.649999991059,0,2,1,0,0,4,3,1,0
1,"poor",13,1,5.39727282499,16,17,0.014,2,36,0.023,0,1,1,1,27,4,15,5,10,25,12.5,15,2,4,3,4,"pa","A",99.9275000020862,260.923000000417,249.819999992847,344.197999998927,294.233499996364,247.970666666826,238.717000000179,99.9285000041127,199.855000004172,521.846000000834,499.639999985695,344.197999998927,588.466999992728,743.912000000477,477.434000000358,199.857000008225,2,2,2,1,2,3,2,2
1,"poor",14,0,10.9811601784,13,28,0.068,14,5,0.058,1,2,0,0,31,1,10,10,6,5,8,7.5,1,0,14,2,"pb","B",233.165666659673,344.19849999994,0,0,270.176166666051,288.681000009179,403.413333336512,0,1398.99399995804,688.396999999881,0,0,1621.0569999963,288.681000009179,1210.24000000954,0,6,2,0,0,6,1,3,0
1,"poor",15,1,8.04946034992,7,23,0.024,13,28,0.019,1,1,0,0,61,1,7,10,10,6,8.5,8,3,4,4,1,"pa","A",446.901250001043,238.716499999166,155.443000003695,0,747.610666672389,351.59899999698,144.340999990702,0,1787.60500000417,477.432999998331,155.443000003695,0,2242.83200001717,1054.79699999094,144.340999990702,0,4,2,1,0,3,3,1,0
1,"poor",16,0,9.54489640315,8,13,0.025,2,36,0.045,0,1,1,0,49,2,8,5,15,25,11.5,15,3,7,5,3,"xb","B",166.547333329916,199.856499999762,199.856499999762,277.578999996185,535.1712000072,421.918833332757,222.061999991536,0,499.641999989748,399.712999999523,399.712999999523,277.578999996185,2675.856000036,2531.51299999654,222.061999991536,0,3,2,2,1,5,6,1,0
1,"poor",17,0,3.84199955894,17,45,0.071,3,10,0.105,0,1,1,0,5,2,15,5,60,15,37.5,10,1,2,3,3,"xb","B",310.887999996543,183.202000007033,249.819499999285,0,316.438999995589,303.486333330472,0,0,310.887999996543,366.404000014067,499.638999998569,0,632.877999991179,910.458999991417,0,0,1,2,2,0,2,3,0,0
1,"poor",18,1,5.7013187321,15,40,0.02,10,29,0.029,0,2,0,1,24,3,10,10,8,40,9,25,1,6,1,1,"xb","B",0,0,199.857000008225,111.032000005245,551.45566666623,480.211249999702,122.13599999249,155.444000005722,0,0,199.857000008225,111.032000005245,1654.36699999869,1920.84499999881,122.13599999249,155.444000005722,0,0,1,1,3,4,1,1
1,"poor",19,1,10.8948568949,14,5,0.028,11,14,0.039,0,1,0,0,10,1,10,10,5,5,7.5,7.5,1,7,4,2,"pa","A",227.614250000566,1321.27349999547,0,0,344.196999999384,424.139400005341,0,0,910.457000002265,2642.54699999094,0,0,2065.1819999963,2120.6970000267,0,0,4,2,0,0,6,5,0,0
1,"poor",20,1,2.56031430364,5,6,0.014,6,25,0.01,1,2,0,0,60,1,5,5,7,20,6,12.5,0,2,2,0,"pa","A",277.57800000906,177.65000000596,0,0,183.202499993145,444.125,88.8250000029802,0,277.57800000906,177.65000000596,0,0,366.404999986291,444.125,88.8250000029802,0,1,1,0,0,2,1,1,0
1,"poor",21,0,8.00784096753,8,13,0.018,4,1,0.031,0,2,0,1,9,3,8,5,15,5,11.5,5,1,7,2,1,"xb","B",0,0,210.959999993443,266.47800001502,541.278250005096,437.463399997354,177.649999991059,0,0,0,210.959999993443,266.47800001502,2165.11300002038,2187.31699998677,177.649999991059,0,0,0,1,1,4,5,1,0
1,"poor",22,0,5.03798274272,9,32,0.023,4,1,0.037,0,2,1,1,50,4,10,5,40,5,25,5,0,5,1,1,"pb","B",0,55.5159999877214,0,0,603.271333331863,458.930000002186,166.545999988914,0,0,55.5159999877214,0,0,1809.81399999559,1376.79000000656,166.545999988914,0,0,1,0,0,3,3,1,0
1,"poor",23,0,10.3287983851,10,29,0.103,14,5,0.086,1,2,0,1,47,3,10,10,40,5,25,7.5,0,6,10,4,"pb","B",316.440000005066,148.042000000676,203.557333340247,0,513.916285712804,203.558166667819,205.408500000834,0,632.880000010133,444.126000002027,610.672000020742,0,3597.41399998963,1221.34900000691,410.817000001669,0,2,3,3,0,7,6,2,0
1,"poor",24,1,7.19237147916,2,36,0.066,1,0,0.08,0,2,0,0,55,1,5,5,25,10,15,7.5,1,4,5,2,"xa","A",260.922500006855,610.674500010908,0,0,309.03750000149,507.04433333377,155.442999988794,0,521.845000013709,1221.34900002182,0,0,1854.22500000894,1521.13300000131,155.442999988794,0,2,2,0,0,6,3,1,0
1,"poor",25,1,9.89300089545,4,1,0.016,2,36,0.032,0,2,1,1,37,4,5,5,5,25,5,15,1,3,12,1,"xa","A",218.361333330472,222.061999991536,0,0,595.405125001445,327.542499996722,166.547999992967,0,1310.16799998283,222.061999991536,0,0,4763.24100001156,655.084999993443,166.547999992967,0,6,1,0,0,8,2,1,0
1,"poor",26,0,2.34180229492,10,29,0.029,14,5,0.023,1,1,0,1,59,3,10,10,40,5,25,7.5,2,1,1,2,"pb","B",177.65000000596,355.29999999702,188.752999991179,122.134999990463,410.815999999642,61.0670000016689,0,0,177.65000000596,355.29999999702,188.752999991179,122.134999990463,410.815999999642,122.134000003338,0,0,1,1,1,1,1,2,0,0
1,"poor",27,0,3.35804720815,2,36,0.045,14,5,0.028,1,1,0,1,13,3,5,10,25,5,15,7.5,1,3,1,1,"xa","A",177.652000010014,277.578999996185,0,0,236.866333335638,371.954999998212,0,0,177.652000010014,277.578999996185,0,0,710.599000006914,743.909999996424,0,0,1,1,0,0,3,2,0,0
1,"poor",28,1,22.4695146751,2,36,0.013,17,45,0.006,1,2,0,1,15,3,5,15,25,60,15,37.5,2,10,15,5,"xa","A",288.681428572961,210.95949999243,366.40266666313,344.197000004351,678.216916665435,212.545714280435,249.821000002325,188.753500007093,2020.77000001073,421.91899998486,1099.20799998939,688.394000008702,8138.60299998522,1487.81999996305,499.642000004649,377.507000014186,7,2,3,2,12,7,2,2
1,"poor",29,1,5.35398030021,8,13,0.046,17,45,0.029,1,1,1,1,0,4,8,15,15,60,11.5,37.5,3,2,3,2,"pb","B",481.136000007391,259.072666664918,0,0,244.266999989748,227.614499993622,166.547999992967,0,1443.40800002217,777.217999994755,0,0,488.533999979496,455.228999987245,166.547999992967,0,3,3,0,0,2,2,1,0
1,"poor",30,1,5.39243708608,5,6,0.047,3,10,0.081,0,2,1,1,6,4,5,5,7,15,6,10,1,1,6,1,"pa","A",316.439750000834,144.341000005603,133.237000003457,0,336.795000006755,316.438999995589,310.887999996543,0,1265.75900000334,144.341000005603,133.237000003457,0,1010.38500002027,632.877999991179,310.887999996543,0,4,1,1,0,3,2,1,0
1,"poor",31,0,2.46752180987,11,14,0.032,5,6,0.064,0,2,1,1,35,4,10,5,5,7,7.5,6,1,1,1,1,"pa","A",55.5160000026226,310.886999994516,0,0,599.568000003695,321.990999996662,277.577000007033,0,55.5160000026226,310.886999994516,0,0,599.568000003695,321.990999996662,277.577000007033,0,1,1,0,0,1,1,1,0
1,"poor",32,0,19.1984373476,5,6,0.014,12,7,0.008,1,1,0,0,30,1,5,10,7,70,6,40,3,11,7,12,"pb","B",210.959666666885,364.183300000429,0,0,429.69130000025,263.447545455261,0,0,1265.75800000131,3641.83300000429,0,0,4296.9130000025,2897.92300000787,0,0,6,10,0,0,10,11,0,0
1,"poor",33,1,6.54729460162,7,23,0.029,13,28,0.02,1,2,1,0,36,2,7,10,10,6,8.5,8,1,3,6,2,"pa","A",732.80733333528,222.06099998951,133.237999990582,0,274.802749995142,244.269500002265,122.133999988437,166.547000005841,2198.42200000584,222.06099998951,133.237999990582,0,1099.21099998057,488.53900000453,122.133999988437,166.547000005841,3,1,1,0,4,2,1,1
1,"poor",34,0,4.65650212114,4,1,0.017,11,14,0.008,1,1,0,1,17,3,5,10,5,5,5,7.5,0,3,1,4,"xa","A",111.030999988317,210.958999991417,0,310.88599999249,466.331000005205,263.699000004679,0,0,111.030999988317,210.958999991417,0,310.88599999249,1398.99300001562,1054.79600001872,0,0,1,1,0,1,3,4,0,0
1,"poor",35,1,7.70654899905,8,13,0.011,15,40,0.009,1,2,0,1,33,3,8,10,15,8,11.5,9,1,5,3,1,"xa","A",210.959000006318,288.681999996305,188.752999991179,0,666.187999989837,743.910000001391,199.856999993324,0,210.959000006318,288.681999996305,188.752999991179,0,2664.75199995935,2231.73000000417,199.856999993324,0,1,1,1,0,4,3,1,0
1,"poor",36,1,3.62372581853,2,36,0.037,17,45,0.016,1,2,1,0,25,2,5,15,25,60,15,37.5,0,1,5,0,"pa","A",55.5160000026226,0,273.876666665077,0,251.670333325863,222.062000006437,0,0,55.5160000026226,0,821.629999995232,0,755.010999977589,222.062000006437,0,0,1,0,3,0,3,1,0,0
1,"poor",37,1,3.15017110991,15,40,0.053,9,32,0.059,0,2,0,1,52,3,10,10,8,40,9,25,2,1,2,0,"xa","A",399.712999999523,244.269999995828,0,0,438.574000000954,188.75300000608,0,0,799.425999999046,244.269999995828,0,0,877.148000001907,188.75300000608,0,0,2,1,0,0,2,1,0,0
1,"poor",38,1,1.54211836062,3,10,0.02,17,45,0.011,1,1,1,0,58,2,5,15,15,60,10,37.5,0,2,0,0,"xa","A",0,0,0,0,355.29999999702,321.990999996662,0,0,0,0,0,0,710.59999999404,321.990999996662,0,0,0,0,0,0,2,1,0,0
1,"poor",39,1,7.45916025374,2,36,0.017,12,7,0.009,1,2,0,1,11,3,5,10,25,70,15,40,2,6,3,2,"xa","A",355.300000011921,288.679999992251,188.752499997616,210.959000006318,480.209499999881,573.661666666468,210.960000008345,111.031000003219,355.300000011921,288.679999992251,377.504999995232,210.959000006318,1920.83799999952,1720.9849999994,210.960000008345,111.031000003219,1,1,2,1,4,3,1,1
1,"poor",40,1,2.5065551497,7,23,0.024,2,36,0.031,0,1,0,1,43,3,7,5,10,25,8.5,15,1,2,1,1,"pa","A",210.959000006318,199.857000008225,0,0,255.371499992907,233.164999999106,0,0,421.918000012636,199.857000008225,0,0,510.742999985814,466.329999998212,0,0,2,1,0,0,2,2,0,0
1,"poor",41,0,11.3254074943,3,10,0.012,5,6,0.007,1,2,1,0,39,2,5,5,15,7,10,6,2,2,5,5,"xa","A",913.231750003994,269.25075000152,0,177.649999991059,426.359599995613,319.21475000307,0,0,3652.92700001597,1077.00300000608,0,177.649999991059,2131.79799997807,1276.85900001228,0,0,4,4,0,1,5,4,0,0
1,"poor",42,1,3.37076187131,11,14,0.016,6,25,0.021,0,1,1,1,45,4,10,5,5,20,7.5,12.5,2,1,1,1,"pb","B",416.368000008166,433.022500000894,0,0,333.094000011683,321.991000011563,0,0,832.736000016332,866.045000001788,0,0,333.094000011683,321.991000011563,0,0,2,2,0,0,1,1,0,0
1,"poor",43,1,11.5244108677,15,40,0.027,12,7,0.03,0,1,1,0,28,2,10,10,8,70,9,40,1,10,5,7,"xa","A",185.052333335082,194.305750004947,155.445000007749,0,455.22849999927,362.702444442444,0,0,555.157000005245,777.223000019789,155.445000007749,0,3641.82799999416,3264.321999982,0,0,3,4,1,0,8,9,0,0
1,"poor",44,1,3.33386380361,7,23,0.047,15,40,0.026,1,1,0,1,54,3,7,10,10,8,8.5,9,0,3,3,4,"pa","A",160.995000004768,210.961999997497,210.959000006318,122.134000003338,288.681999996305,114.732333337267,166.547000005841,144.341999992728,321.990000009537,210.961999997497,210.959000006318,122.134000003338,577.363999992609,344.197000011802,166.547000005841,144.341999992728,2,1,1,1,2,3,1,1
1,"poor",45,1,1.99119903274,1,0,0.021,17,45,0.01,1,1,0,1,62,3,5,15,10,60,7.5,37.5,0,4,0,0,"xa","A",0,0,0,0,136.938999995589,349.748500004411,0,0,0,0,0,0,410.816999986768,699.497000008821,0,0,0,0,0,0,3,2,0,0
1,"poor",46,1,19.677916626,13,28,0.01,3,10,0.018,0,1,0,0,40,1,10,5,6,15,8,10,3,15,8,8,"pb","B",149.892500001937,358.076000001281,222.063500009477,288.682500004768,526.288399994373,423.029399999976,249.820499993861,133.23750000447,599.570000007749,1432.30400000513,444.127000018954,577.365000009537,5262.88399994373,4230.29399999976,499.640999987721,266.475000008941,4,4,2,2,10,10,2,2
1,"poor",47,1,10.9478865599,14,5,0.01,2,36,0.017,0,2,1,0,3,2,10,5,5,25,7.5,15,1,2,14,2,"xa","A",238.717500001192,205.408500000834,445.97599999855,0,610.673399990797,383.058499999344,216.511250004172,0,477.435000002384,410.817000001669,2675.8559999913,0,3053.36699995399,766.116999998689,866.045000016689,0,2,2,6,0,5,2,4,0
1,"poor",48,0,3.63558714859,9,32,0.009,5,6,0.017,0,2,1,1,21,4,10,5,40,7,25,6,0,2,2,0,"xb","B",210.959999993443,0,0,0,482.985500000417,377.506999999285,244.269000008702,0,210.959999993443,0,0,0,965.971000000834,755.013999998569,244.269000008702,0,1,0,0,0,2,2,1,0
1,"poor",49,1,6.99072055669,14,5,0.004,3,10,0.009,0,1,0,0,29,1,10,5,5,15,7.5,10,4,1,1,4,"pa","A",347.898666669925,435.798000007868,233.165999993682,0,299.783999994397,292.382666662335,233.166000008583,210.959000006318,1043.69600000978,1743.19200003147,233.165999993682,0,299.783999994397,877.147999987006,233.166000008583,210.959000006318,3,4,1,0,1,3,1,1
1,"poor",50,1,2.27297793303,11,14,0.067,15,40,0.041,1,1,0,0,63,1,10,10,5,8,7.5,9,1,1,1,0,"pb","B",166.546499997377,144.341000005603,0,0,177.65000000596,377.508000001311,0,0,333.092999994755,144.341000005603,0,0,177.65000000596,377.508000001311,0,0,2,1,0,0,1,1,0,0
1,"poor",51,0,5.22563955653,12,7,0.021,5,6,0.042,0,2,1,0,16,2,10,5,70,7,40,6,2,0,5,3,"xb","B",233.16550000757,249.819499999285,111.030999988317,244.270000010729,340.494999999801,510.742999993265,321.991999998689,0,466.33100001514,499.638999998569,111.030999988317,244.270000010729,1021.4849999994,1021.48599998653,321.991999998689,0,2,2,1,1,3,2,1,0
1,"poor",52,1,6.24025177759,1,0,0.019,12,7,0.011,1,1,0,0,12,1,5,10,10,70,7.5,40,3,2,4,6,"pb","B",127.685249999166,381.946999999881,0,0,262.774333332976,263.699500001967,0,0,510.740999996662,1909.7349999994,0,0,788.322999998927,1054.79800000787,0,0,4,5,0,0,3,4,0,0
1,"poor",53,1,2.76633329417,4,1,0.058,17,45,0.029,1,1,0,0,19,1,5,15,5,60,5,37.5,1,1,3,1,"pa","A",192.45466666917,255.372000008821,0,0,399.713500000536,344.198000013828,0,0,577.36400000751,255.372000008821,0,0,799.427000001073,344.198000013828,0,0,3,1,0,0,2,1,0,0
1,"poor",54,0,9.38511559894,7,23,0.025,15,40,0.013,1,1,1,1,44,4,7,10,10,8,8.5,9,7,2,3,5,"pb","B",442.274999996026,307.715714282223,0,0,222.0625,344.197000004351,299.783999994397,0,2653.64999997616,2154.00999997556,0,0,444.125,1376.7880000174,299.783999994397,0,6,7,0,0,2,4,1,0
1,"poor",55,1,5.48711744079,11,14,0.056,5,6,0.086,0,2,0,0,42,1,10,5,5,7,7.5,6,1,1,6,1,"xb","B",270.175999999046,777.219999998808,255.372000008821,0,344.197499997914,344.196500003338,299.78449999541,0,810.527999997139,777.219999998808,255.372000008821,0,688.394999995828,688.393000006676,599.568999990821,0,3,1,1,0,2,2,2,0
1,"poor",56,1,1.77170929268,5,6,0.007,6,25,0.005,1,2,0,1,1,3,5,5,7,20,6,12.5,0,1,0,0,"xa","A",0,0,0,0,999.283999994397,255.371000006795,0,0,0,0,0,0,999.283999994397,255.371000006795,0,0,0,0,0,0,1,1,0,0
1,"poor",57,1,4.20693881714,16,17,0.011,12,7,0.022,0,1,0,0,34,1,15,10,10,70,12.5,40,1,2,1,2,"pa","A",122.133999995887,321.991999998689,0,0,316.439999997616,627.326999999583,0,0,244.267999991775,643.983999997377,0,0,632.879999995232,1254.65399999917,0,0,2,2,0,0,2,2,0,0
1,"poor",58,0,7.65351600942,16,17,0.029,5,6,0.046,0,2,1,1,32,4,15,5,10,7,12.5,6,2,2,5,3,"pb","B",418.219000006715,625.47766666611,277.580000013113,0,307.18700000147,273.876999994119,122.134999990463,0,1254.65700002015,1876.43299999833,277.580000013113,0,921.561000004411,821.630999982357,122.134999990463,0,3,3,1,0,3,3,1,0
1,"poor",59,1,23.5507633452,15,40,0.038,11,14,0.073,0,2,1,0,56,2,10,10,8,5,9,7.5,2,10,9,5,"xa","A",330.317499998957,210.959750000387,205.407999999821,0,1122.65011111233,387.222000002861,321.990500003099,0,1321.26999999583,843.83900000155,410.815999999642,0,10103.851000011,3097.77600002289,643.981000006199,0,4,4,2,0,9,8,2,0
1,"rich",0,1,13.5539098725,4,4,0.032,7,15,0.018,1,2,1,1,7,4,50,90,30,80,40,85,3,6,14,2,"ya","A",240.56766666472,0,407.114833340049,222.063000003497,410.815750002861,581.063999995589,267.863374998793,222.063499994576,721.702999994159,0,2442.68900004029,666.18900001049,1643.26300001144,1743.19199998677,2142.90699999034,444.126999989152,3,0,6,3,4,3,8,2
1,"rich",1,1,4.07566709591,17,26,0.041,11,20,0.056,0,1,1,0,0,2,100,95,95,85,97.5,90,1,3,3,3,"xb","B",177.653999999166,177.65000000596,338.64999999851,155.437999993563,233.165999993682,214.662000000477,166.542999997735,210.951999992132,177.653999999166,177.65000000596,677.29999999702,155.437999993563,466.331999987364,643.986000001431,166.542999997735,210.951999992132,1,1,2,1,2,3,1,1
1,"rich",2,1,6.27889779286,6,38,0.036,13,44,0.028,1,1,1,1,47,4,85,99,85,90,85,94.5,3,3,4,3,"pa","A",238.718000002205,507.044666662812,0,0,233.165999998649,392.311333333453,199.857999995351,0,954.872000008821,1521.13399998844,0,0,699.497999995947,1176.93400000036,199.857999995351,0,4,3,0,0,3,3,1,0
1,"rich",3,0,2.43112299744,6,38,0.013,4,4,0.024,0,1,0,1,40,3,85,50,85,30,85,40,0,3,0,0,"xb","B",0,0,0,0,349.74849999696,488.53750000149,0,0,0,0,0,0,699.49699999392,977.07500000298,0,0,0,0,0,0,2,2,0,0
1,"rich",4,1,9.40680826824,1,8,0.041,3,34,0.021,1,1,1,0,42,2,45,50,45,45,45,47.5,1,2,8,3,"xb","B",111.032000005245,233.165999993682,272.02650000155,643.982000008225,229.464333335559,1976.37149998546,172.098999992013,177.649999991059,111.032000005245,233.165999993682,1088.1060000062,643.982000008225,688.393000006676,3952.74299997091,344.197999984026,177.649999991059,1,1,4,1,3,2,2,1
1,"rich",5,1,5.66346565168,13,44,0.03,16,42,0.022,1,1,1,0,56,2,99,100,90,100,94.5,100,2,2,6,2,"xb","B",133.236999988556,0,229.465333337585,210.959499999881,407.114666670561,355.300499998033,333.093499995768,166.547000005841,133.236999988556,0,688.396000012755,421.918999999762,1221.34400001168,710.600999996066,666.186999991536,166.547000005841,1,0,3,2,3,2,2,1
1,"rich",6,1,2.40553658029,3,34,0.067,8,27,0.034,1,1,1,1,28,4,50,90,45,80,47.5,85,0,2,3,2,"pa","A",377.506999999285,122.13599999249,177.652000010014,0,321.993000000715,188.75300000608,111.030999988317,144.342000007629,377.506999999285,122.13599999249,177.652000010014,0,321.993000000715,188.75300000608,222.061999976635,144.342000007629,1,1,1,0,1,1,2,1
1,"rich",7,0,5.09171945511,12,19,0.034,9,33,0.037,0,1,1,1,62,4,95,90,90,90,92.5,90,1,3,2,4,"pb","B",149.892999999225,236.866666669647,0,0,582.914999999106,236.866999998689,188.753999993205,166.547999992967,299.78599999845,710.600000008941,0,0,1165.82999999821,710.600999996066,188.753999993205,166.547999992967,2,3,0,0,2,3,1,1
1,"rich",8,1,7.31179516902,7,15,0.022,8,27,0.014,1,2,1,0,31,2,90,90,80,80,85,85,0,5,3,0,"ya","A",222.062999993563,0,0,0,921.563249997795,299.784750003368,133.23750000447,0,222.062999993563,0,0,0,3686.25299999118,1199.13900001347,266.475000008941,0,1,0,0,0,4,4,2,0
1,"rich",9,1,4.77303971656,7,15,0.115,15,22,0.066,1,2,1,1,52,4,90,99,80,90,85,94.5,0,2,5,2,"pa","A",92.5256666640441,210.959000006318,355.29999999702,0,325.692000001669,296.082000002265,277.576999992132,0,277.576999992132,210.959000006318,355.29999999702,0,977.076000005007,888.246000006795,277.576999992132,0,3,1,1,0,3,3,1,0
1,"rich",10,0,12.9440437904,16,42,0.019,13,44,0.026,0,1,0,1,20,3,100,99,100,90,100,94.5,5,5,6,7,"qb","B",181.351333330075,377.506999999285,251.671333327889,190.973999997973,310.8880000008,507.573428569095,0,0,544.053999990225,755.013999998569,755.013999983668,954.869999989867,2176.2160000056,3553.01399998367,0,0,3,2,3,5,7,7,0,0
1,"rich",11,1,11.4036639574,5,31,0.061,9,33,0.036,1,1,1,1,25,4,85,90,85,90,85,90,7,2,6,8,"pa","A",477.434599995613,335.314999997616,384.908666660388,260.924000002444,310.887999996543,177.650333335002,196.154666667183,162.846000005802,2387.17299997807,1676.57499998808,1154.72599998116,521.848000004888,310.887999996543,532.951000005007,588.46400000155,488.538000017405,5,5,3,2,1,3,3,3
1,"rich",12,1,25.0903311265,7,15,0.032,11,20,0.024,1,2,1,1,58,4,90,95,80,85,85,90,1,12,17,5,"xa","A",249.027428571667,216.511999994516,177.651000007987,177.650999993086,706.635142860668,493.296428569726,558.85833332936,338.646000005305,1743.19200000167,433.023999989033,177.651000007987,177.650999993086,9892.89200004935,3453.07499998808,1676.57499998808,677.29200001061,7,2,1,1,14,7,3,2
1,"rich",13,1,1.90245072832,2,39,0.023,16,42,0.014,1,1,1,1,50,4,45,100,85,100,65,100,0,1,2,0,"pa","A",99.9275000020862,0,0,0,166.54699999094,355.300000011921,299.784999996424,0,199.855000004172,0,0,0,166.54699999094,355.300000011921,299.784999996424,0,2,0,0,0,1,1,1,0
1,"rich",14,1,4.75006483115,13,44,0.068,14,43,0.058,1,2,0,0,37,1,99,99,90,95,94.5,97,3,0,4,3,"pa","A",297.009250000119,199.856666664282,0,111.031000003219,288.681500002742,266.47499999404,333.093999996781,233.164999991655,1188.03700000048,599.569999992847,0,111.031000003219,577.363000005484,266.47499999404,333.093999996781,233.164999991655,4,3,0,1,2,1,1,1
1,"rich",15,0,6.47111689112,13,44,0.019,7,15,0.024,0,1,0,0,38,1,99,90,90,80,94.5,85,1,2,4,4,"pb","B",258.147750005126,263.699249997735,0,0,218.361333330472,284.980666662256,277.578999996185,177.65000000596,1032.5910000205,1054.79699999094,0,0,655.083999991417,854.941999986768,277.578999996185,177.65000000596,4,4,0,0,3,3,1,1
1,"rich",16,0,12.6566899653,8,27,0.025,2,39,0.045,0,1,1,0,5,2,90,45,80,85,85,65,5,6,10,7,"qa","A",0,0,220.829444448153,288.681571428265,319.214250002056,610.673000004143,230.945199996233,233.166333332658,0,0,1987.46500003338,2020.77099999785,1276.85700000823,2442.69200001657,1154.72599998116,699.498999997973,0,0,9,7,4,4,5,3
1,"rich",17,1,2.83751845194,3,34,0.105,17,26,0.071,1,1,1,0,45,2,50,100,45,95,47.5,97.5,0,1,2,1,"qa","A",0,0,116.582499995828,177.649999991059,410.815499998629,377.509000003338,0,0,0,0,233.164999991655,177.649999991059,821.630999997258,377.509000003338,0,0,0,0,2,1,2,1,0,0
1,"rich",18,0,27.541119296,15,22,0.02,10,41,0.029,0,2,0,1,49,3,99,95,90,90,94.5,92.5,2,13,7,3,"xb","B",433.021999999881,227.613999992609,310.88750000298,310.885000005364,988.177833337337,770.280374998227,183.202499993145,244.269499994814,433.021999999881,455.227999985218,621.77500000596,310.885000005364,11858.134000048,6162.24299998581,366.404999986291,488.538999989629,1,2,2,1,12,8,2,2
1,"rich",19,0,3.7142614125,14,43,0.028,11,20,0.039,0,1,0,0,27,1,99,95,95,85,97,90,2,1,0,3,"pb","B",366.402999997139,277.577999999126,0,0,455.225000008941,344.194000005722,0,266.47499999404,366.402999997139,832.733999997377,0,0,455.225000008941,344.194000005722,0,266.47499999404,1,3,0,0,1,1,0,1
1,"rich",20,0,56.3427514895,5,31,0.014,6,38,0.01,1,2,0,0,1,1,85,85,85,85,85,85,0,1,46,19,"yb","B",320.757333334949,287.09528571793,223.071636365219,177.649500004947,306.315999999642,366.403285714132,197.08062500041,241.493125000969,2886.81600001454,2009.66700002551,2453.7880000174,710.598000019789,5207.37199999392,2564.82299999893,3153.29000000656,1931.94500000775,9,7,11,4,17,7,16,8
1,"rich",21,0,2.75022386141,8,27,0.018,4,4,0.031,0,2,0,1,10,3,90,50,80,30,85,40,1,2,1,3,"xb","B",0,0,310.888999998569,177.649999991059,333.095000013709,188.754000000656,177.65000000596,199.855999998748,0,0,310.888999998569,177.649999991059,333.095000013709,377.508000001311,177.65000000596,399.711999997497,0,0,1,1,1,2,1,2
1,"rich",22,0,4.28757962596,9,33,0.023,4,4,0.037,0,2,1,1,13,4,90,50,90,30,90,40,1,0,4,2,"pb","B",199.857000008225,159.145666663845,222.063999995589,0,444.125500001013,344.196999996901,205.407499998808,0,199.857000008225,477.436999991536,222.063999995589,0,888.251000002027,344.196999996901,410.814999997616,0,1,3,1,0,2,1,2,0
1,"rich",23,1,27.352298292,14,43,0.086,10,41,0.103,0,2,0,1,11,3,99,95,95,90,97,92.5,3,11,14,10,"xb","B",218.362333337466,210.959750000387,334.944500001768,353.079600003362,506.580937498249,404.154199998081,299.783999994397,158.220249999315,655.087000012398,843.83900000155,2009.66700001061,1765.39800001681,8105.29499997199,4041.54199998081,599.567999988794,632.880999997258,3,4,6,5,16,10,2,4
1,"rich",24,0,7.19649878539,2,39,0.066,1,8,0.08,0,2,0,0,30,1,45,45,85,45,65,45,1,0,8,2,"pb","B",433.021666665872,114.732333327333,233.16400000453,0,355.30066666007,255.372000008821,618.074000000954,0,1299.06499999762,344.196999981999,233.16400000453,0,1065.90199998021,255.372000008821,1854.22200000286,0,3,3,1,0,3,1,3,0
1,"rich",25,0,5.61117905146,2,39,0.032,4,4,0.016,1,2,1,1,26,4,45,50,85,30,65,40,2,1,5,5,"pb","B",416.367500014603,255.371249999851,111.031000003219,0,244.268500007689,222.062999993563,116.582499988377,0,832.735000029206,1021.4849999994,111.031000003219,0,488.537000015378,666.188999980688,233.164999976754,0,2,4,1,0,2,3,2,0
1,"rich",26,1,6.09281050242,10,41,0.029,14,43,0.023,1,1,0,1,6,3,95,99,90,95,92.5,97,4,4,2,4,"ya","A",430.245499998331,218.36199999849,0,288.681999996305,255.371666674813,235.941750001162,144.341000005603,111.031000003219,1720.98199999332,655.08599999547,0,288.681999996305,766.115000024438,943.767000004649,144.341000005603,111.031000003219,4,3,0,1,3,4,1,1
1,"rich",27,0,8.94184922824,14,43,0.028,2,39,0.045,0,1,0,1,55,3,99,45,95,85,97,65,2,8,5,2,"xb","B",240.567333340645,344.197999998927,99.929000005126,299.783999994397,455.228142853294,279.428333332141,0,0,721.702000021935,344.197999998927,99.929000005126,299.783999994397,3186.59699997306,1676.56999999285,0,0,3,1,1,1,7,6,0,0
1,"rich",28,0,2.04657674901,17,26,0.006,2,39,0.013,0,2,0,1,59,3,100,45,95,85,97.5,65,0,2,1,2,"xb","B",0,199.855999991298,66.6190000027418,0,266.47499999404,210.959499999881,166.547000005841,99.9280000030994,0,199.855999991298,66.6190000027418,0,266.47499999404,421.918999999762,166.547000005841,99.9280000030994,0,1,1,0,1,2,1,1
1,"rich",29,1,2.29329252479,8,27,0.046,17,26,0.029,1,1,1,1,64,4,90,100,80,95,85,97.5,0,2,3,0,"pa","A",127.686500005424,0,0,0,155.444499999285,532.952000007033,177.649999991059,0,255.373000010848,0,0,0,310.888999998569,532.952000007033,177.649999991059,0,2,0,0,0,2,1,1,0
1,"rich",30,0,12.808842027,5,31,0.047,3,34,0.081,0,2,1,1,12,4,85,50,85,45,85,47.5,1,6,9,10,"pb","B",449.676749993116,209.109333336353,0,0,312.275624999776,359.464624995366,133.238000005484,222.061999991536,1798.70699997246,1254.65600001812,0,0,2498.20499999821,2875.71699996293,266.476000010967,222.061999991536,4,6,0,0,8,8,2,1
1,"rich",31,0,9.74376291082,11,20,0.032,5,31,0.064,0,2,1,1,4,4,95,85,85,85,90,85,1,2,12,8,"yb","B",216.51099999249,160.995999999344,247.04449999705,259.072666669885,235.941750004888,259.07299999396,257.222499998907,216.510749995708,433.02199998498,321.991999998689,988.177999988198,777.218000009656,943.76700001955,777.21899998188,1543.33499999344,866.042999982834,2,2,4,3,4,3,6,4
1,"rich",32,0,15.2513725364,12,19,0.008,5,31,0.014,0,1,0,0,23,1,95,85,90,85,92.5,85,7,3,11,8,"xa","A",283.130099999905,282.336857144322,388.609999999404,160.995999999344,290.267571427992,220.477142859783,262.774666666985,127.686000004411,2831.30099999905,1976.35800001025,388.609999999404,321.991999998689,2031.87299999595,1543.34000001848,788.324000000954,255.372000008821,10,7,1,2,7,7,3,2
1,"rich",33,1,2.54089875922,7,15,0.029,13,44,0.02,1,2,1,0,61,2,90,99,80,90,85,94.5,0,2,3,0,"pa","A",55.515000000596,0,155.444000005722,0,371.955499999225,366.402999997139,277.579000011086,0,55.515000000596,0,155.444000005722,0,743.91099999845,366.402999997139,277.579000011086,0,1,0,1,0,2,1,1,0
1,"rich",34,1,6.95880617591,4,4,0.017,11,20,0.008,1,1,0,1,2,3,50,95,30,85,40,90,1,2,6,1,"pa","A",205.408000003546,0,277.57800000906,233.165500000119,359.741200003028,449.677499994636,188.753999993205,133.237000003457,821.632000014186,0,277.57800000906,466.331000000238,1798.70600001514,899.354999989271,188.753999993205,133.237000003457,4,0,1,2,5,2,1,1
1,"rich",35,0,4.96182276381,15,22,0.009,8,27,0.011,0,2,0,1,48,3,99,90,90,80,94.5,85,1,3,5,3,"xb","B",216.512000001967,166.548000007868,244.269999995828,122.134999990463,277.579000001152,503.343666677674,166.54699999094,144.341000005603,433.024000003934,166.548000007868,244.269999995828,122.134999990463,832.737000003457,1510.03100003302,166.54699999094,144.341000005603,2,1,1,1,3,3,1,1
1,"rich",36,0,3.79736802151,17,26,0.016,2,39,0.037,0,2,1,0,44,2,100,45,95,85,97.5,65,1,3,4,1,"pa","A",55.515000000596,244.269999995828,172.098999999464,0,259.073333332936,460.780499994755,299.784999996424,0,55.515000000596,244.269999995828,344.197999998927,0,777.219999998808,921.56099998951,299.784999996424,0,1,1,2,0,3,2,1,0
1,"rich",37,1,10.3082757241,15,22,0.053,9,33,0.059,0,2,0,1,41,3,99,90,90,90,94.5,90,2,5,9,1,"xa","A",233.165333330631,122.135000005364,205.408000007272,321.99200001359,378.894374992698,488.539250001311,188.752999998629,0,699.495999991894,122.135000005364,410.816000014544,321.99200001359,3031.15499994159,1954.15700000525,377.505999997258,0,3,1,2,1,8,4,2,0
1,"rich",38,0,3.16966838589,17,26,0.011,3,34,0.02,0,1,1,0,21,2,100,50,95,45,97.5,47.5,0,0,4,3,"qb","B",199.856000006199,188.75300000608,216.51099999994,55.515000000596,366.403999999166,216.51099999994,377.506999999285,0,199.856000006199,188.75300000608,433.021999999881,55.515000000596,366.403999999166,433.021999999881,377.506999999285,0,1,1,2,1,1,2,1,0
1,"rich",39,1,8.19188524554,2,39,0.017,12,19,0.009,1,2,0,1,3,3,45,95,85,90,65,92.5,1,5,6,3,"yb","B",194.304999999702,210.959999993443,199.857000008225,0,440.424333336453,452.453249994665,310.886999994516,183.201000005007,388.609999999404,210.959999993443,199.857000008225,0,2642.54600001872,1809.81299997866,310.886999994516,366.402000010014,2,1,1,0,6,4,1,2
1,"rich",40,1,5.53999860365,7,15,0.024,2,39,0.031,0,1,0,1,54,3,90,45,80,85,85,65,1,5,3,1,"xb","B",299.784999996424,155.444000005722,255.372999995947,0,419.14300000295,327.541749995202,133.23900000751,0,299.784999996424,155.444000005722,255.372999995947,0,1676.5720000118,1310.16699998081,133.23900000751,0,1,1,1,0,4,4,1,0
1,"rich",41,1,5.35683065437,5,31,0.007,3,34,0.012,0,2,1,0,9,2,85,50,85,45,85,47.5,0,1,7,2,"pb","B",205.408000007272,205.408999994397,399.712999999523,0,327.542999997735,316.43900000304,222.0625,0,410.816000014544,410.817999988794,399.712999999523,0,1310.17199999094,632.87800000608,444.125,0,2,2,1,0,4,2,2,0
1,"rich",42,0,4.88016294228,11,20,0.016,6,38,0.021,0,1,1,1,63,4,95,85,85,85,90,85,5,2,1,1,"pb","B",266.475666667024,381.207999999324,0,0,455.227999985218,244.270000010729,277.578999996185,188.75300000608,799.427000001073,1143.62399999797,0,0,455.227999985218,244.270000010729,277.578999996185,188.75300000608,3,3,0,0,1,1,1,1
1,"rich",43,0,28.1226948924,12,19,0.03,15,22,0.027,1,1,1,0,8,2,95,99,90,90,92.5,94.5,6,20,12,11,"xb","B",321.991999998689,244.268333340685,379.974111111628,290.531833340724,474.018230766058,427.470571427473,308.667200002074,288.681749999523,321.991999998689,732.805000022054,3419.76700000465,1743.19100004435,6162.23699995875,5984.58799998462,1543.33600001037,1154.72699999809,1,3,9,6,13,14,5,4
1,"rich",44,1,5.19749563361,7,15,0.047,15,22,0.026,1,1,0,1,43,3,90,99,80,90,85,94.5,2,3,4,1,"xa","A",216.511500000954,177.650999993086,310.889000013471,244.268000006676,202.077000001073,649.534000001848,0,0,433.023000001907,177.650999993086,310.889000013471,244.268000006676,1010.38500000536,1299.0680000037,0,0,2,1,1,1,5,2,0,0
1,"rich",45,1,1.48306189214,1,8,0.021,17,26,0.01,1,1,0,1,46,3,45,100,45,95,45,97.5,0,2,0,0,"xa","A",0,0,0,0,321.991499997675,388.609999999404,0,0,0,0,0,0,643.982999995351,388.609999999404,0,0,0,0,0,0,2,1,0,0
1,"rich",46,0,4.06290006916,13,44,0.01,3,34,0.018,0,1,0,0,53,1,99,50,90,45,94.5,47.5,0,3,2,4,"pb","B",277.579500004649,155.444666663806,0,0,236.867666661739,214.662000000477,0,233.166999995708,555.159000009298,466.333999991417,0,0,710.602999985218,643.986000001431,0,233.166999995708,2,3,0,0,3,3,0,1
1,"rich",47,1,4.2600430102,2,39,0.017,14,43,0.01,1,2,1,0,60,2,45,99,85,95,65,97,1,1,6,1,"xa","A",205.408500000834,133.237000003457,144.342000007629,0,274.802500002086,321.991999998689,433.023999989033,0,410.817000001669,133.237000003457,144.342000007629,0,1099.21000000834,321.991999998689,433.023999989033,0,2,1,1,0,4,1,1,0
1,"rich",48,0,14.480320144,9,33,0.009,5,31,0.017,0,2,1,1,39,4,90,85,90,85,90,85,3,2,16,9,"yb","B",202.076599997282,199.85666666925,766.112500000745,133.237999998033,222.062600001693,235.942750003189,338.645000003278,260.923749998212,1010.38299998641,599.570000007749,3064.45000000298,266.475999996066,1110.31300000846,943.771000012755,2031.87000001967,1043.69499999285,5,3,4,2,5,4,6,4
1,"rich",49,0,3.86400751819,14,43,0.004,3,34,0.009,0,1,0,0,34,1,99,50,95,45,97,47.5,0,1,2,1,"pb","B",127.686499997973,455.230000004172,0,0,410.81550000608,488.538999989629,0,88.8250000029802,255.372999995947,455.230000004172,0,0,821.631000012159,488.538999989629,0,88.8250000029802,2,1,0,0,2,1,0,1
1,"rich",50,0,20.8753000519,11,20,0.067,15,22,0.041,1,1,0,0,14,1,95,99,85,90,90,94.5,5,8,13,7,"pb","B",244.269375002012,284.240400001407,233.166000001132,260.925499998033,684.694444442789,279.165142855474,191.529500000179,185.978250004351,1954.15500001609,1421.20200000703,466.332000002265,521.850999996066,6162.2499999851,1954.15599998832,766.118000000715,743.913000017405,8,5,2,2,9,7,4,4
1,"rich",51,1,8.81108645926,5,31,0.042,12,19,0.021,1,2,1,0,22,2,85,95,85,90,85,92.5,2,3,6,3,"pb","B",194.305000007153,185.052333330115,188.753333325187,0,879.923250000924,230.390500001609,188.754000008106,0,388.610000014305,555.156999990344,566.259999975562,0,3519.6930000037,921.562000006437,188.754000008106,0,2,3,3,0,4,4,1,0
1,"rich",52,0,11.9400356183,12,19,0.011,1,8,0.019,0,1,0,0,32,1,95,45,90,45,92.5,45,2,10,3,7,"yb","B",199.856333330274,170.988800001144,0,0,542.203166668614,323.378750003874,194.305500000715,310.887999996543,599.568999990821,854.944000005722,0,0,3253.21900001168,2587.03000003099,388.611000001431,621.775999993086,3,5,0,0,6,8,2,2
1,"rich",53,0,10.4388060429,17,26,0.029,4,4,0.058,0,1,0,0,24,1,100,50,95,30,97.5,40,2,5,5,9,"pb","B",180.425500001758,662.48699999849,0,0,194.304500006139,242.048399999738,99.9270000010729,294.232999995351,721.702000007033,3974.92199999094,0,0,777.218000024557,1210.24199999869,99.9270000010729,588.465999990702,4,6,0,0,4,5,1,2
1,"rich",54,1,4.00519868254,7,15,0.025,15,22,0.013,1,1,1,1,35,4,90,99,80,90,85,94.5,1,2,4,2,"pa","A",244.269499994814,144.340999998152,144.340999990702,0,427.471500001848,244.269999995828,111.031000003219,0,488.538999989629,288.681999996305,144.340999990702,0,854.943000003695,488.539999991655,222.062000006437,0,2,2,1,0,2,2,2,0
1,"rich",55,1,6.99176755206,5,31,0.086,11,20,0.056,1,2,0,0,19,1,85,95,85,85,85,90,3,1,6,5,"pa","A",288.68180000484,181.351666669051,0,122.135000005364,314.587999999523,499.641999997199,227.61400000006,160.994499996305,1443.4090000242,544.055000007153,0,122.135000005364,943.763999998569,999.283999994397,455.228000000119,321.988999992609,5,3,0,1,3,2,2,2
1,"rich",56,0,6.73349299158,5,31,0.007,6,38,0.005,1,2,0,1,33,3,85,85,85,85,85,85,2,3,4,1,"qa","A",222.061999991536,321.991999998689,230.390000000596,244.268999993801,540.352666661143,340.496333335837,277.57800000906,0,222.061999991536,321.991999998689,921.560000002384,244.268999993801,1621.05799998343,1021.48900000751,277.57800000906,0,1,1,4,1,3,3,1,0
1,"rich",57,0,3.0846209982,16,42,0.011,12,19,0.022,0,1,0,0,29,1,100,95,100,90,100,92.5,0,1,3,4,"yb","B",172.098999999464,255.37199999392,0,233.165999993682,144.340000003576,399.713000014424,233.165999993682,149.891500003636,344.197999998927,255.37199999392,0,233.165999993682,144.340000003576,399.713000014424,233.165999993682,299.783000007272,2,1,0,1,1,1,1,2
1,"rich",58,0,3.5549194653,16,42,0.029,5,31,0.046,0,2,1,1,17,4,100,85,100,85,100,85,1,1,4,4,"pb","B",222.063000008464,127.685750000179,177.651000007987,0,149.892000004649,105.480499997735,127.686500005424,0,222.063000008464,510.743000000715,177.651000007987,0,299.784000009298,210.96099999547,255.373000010848,0,1,4,1,0,2,2,2,0
1,"rich",59,1,7.89738697215,15,22,0.038,11,20,0.073,0,2,1,0,51,2,99,95,90,85,94.5,90,2,3,6,4,"xb","B",288.682333330313,333.093499995768,149.891999989748,310.887999996543,305.335999999195,299.784599998593,166.545000001788,0,866.04699999094,666.186999991536,299.783999979496,310.887999996543,1221.34399999678,1498.92299999297,166.545000001788,0,3,2,2,1,4,5,1,0
2,"poor",0,1,1.72363389935,7,18,0.018,4,5,0.032,0,1,0,1,36,3,43,41,52,51,47.5,46,1,0,2,1,"xb","B",255.372000008821,222.062999993563,133.238000005484,0,477.435000002384,55.515000000596,0,0,255.372000008821,222.062999993563,133.238000005484,0,477.435000002384,55.515000000596,0,0,1,1,1,0,1,1,0,0
2,"poor",1,1,3.6443526712,11,10,0.056,17,12,0.041,1,1,1,1,32,4,46,49,51,52,48.5,50.5,1,3,3,1,"pa","A",166.546999998391,321.99200001359,0,0,262.775666664044,649.535499997437,99.929000005126,0,333.093999996781,321.99200001359,0,0,788.326999992132,1299.07099999487,99.929000005126,0,2,1,0,0,3,2,1,0
2,"poor",2,0,5.35347991994,13,28,0.028,6,0,0.036,0,1,0,1,26,3,46,41,62,53,54,47,1,6,2,2,"pb","B",0,55.5170000046492,155.444999992847,277.579000011086,482.987500000745,424.696250006557,210.959999993443,0,0,55.5170000046492,155.444999992847,277.579000011086,1931.95000000298,1698.78500002623,210.959999993443,0,0,1,1,1,4,4,1,0
2,"poor",3,1,5.09570815368,6,0,0.013,4,5,0.024,0,1,0,0,6,1,41,41,53,51,47,46,2,3,4,3,"xb","B",172.098999999464,266.47499999404,743.912000000477,199.857000000775,236.867333332698,333.094333325823,138.789999999106,66.6190000027418,344.197999998927,266.47499999404,743.912000000477,399.71400000155,710.601999998093,999.282999977469,277.579999998212,66.6190000027418,2,1,1,2,3,3,2,1
2,"poor",4,1,6.72751988639,3,21,0.021,1,1,0.041,0,2,0,1,35,3,41,39,49,47,45,43,0,3,0,1,"pa","A",111.031999990344,222.062999993563,0,0,1526.68599999696,729.106333335241,0,0,111.031999990344,222.062999993563,0,0,3053.37199999392,2187.31900000572,0,0,1,1,0,0,2,3,0,0
2,"poor",5,0,12.0392255842,13,28,0.03,16,3,0.022,1,1,1,0,17,2,46,49,62,49,54,49,7,7,7,4,"xb","B",266.475999996066,122.134500004351,250.931600001454,336.795999998848,526.28979999721,530.731999993324,222.06299999853,210.960000000894,532.951999992132,244.269000008702,1254.65800000727,1010.38799999654,2631.44899998605,2653.65999996662,666.188999995589,421.920000001788,2,2,5,3,5,5,3,2
2,"poor",6,0,3.45148265117,3,21,0.067,8,4,0.034,1,1,1,0,24,2,41,43,49,51,45,47,1,1,3,3,"xb","B",99.9280000030994,222.063999995589,177.650499999523,155.444000005722,383.058499999344,266.475999988616,0,144.340999990702,99.9280000030994,222.063999995589,355.300999999046,155.444000005722,766.116999998689,532.951999977231,0,144.340999990702,1,1,2,1,2,2,0,1
2,"poor",7,0,7.73292303192,9,6,0.037,12,14,0.034,1,2,1,1,16,4,44,46,52,50,48,48,2,7,8,3,"pa","A",140.640000000596,272.027499996126,162.846666663885,0,355.300599998236,390.831600004435,162.84633333981,233.16700001061,421.920000001788,544.054999992251,488.539999991655,0,1776.50299999118,1954.15800002217,488.539000019431,233.16700001061,3,2,3,0,5,5,3,1
2,"poor",8,0,1.94740175526,7,18,0.022,8,4,0.014,1,1,0,0,61,1,43,43,52,51,47.5,47,0,1,1,1,"pb","B",55.516999989748,111.032000005245,0,0,433.024000003934,799.427000001073,0,0,55.516999989748,111.032000005245,0,0,433.024000003934,799.427000001073,0,0,1,1,0,0,1,1,0,0
2,"poor",9,1,5.16461308165,7,18,0.115,15,35,0.066,1,1,0,0,12,1,43,48,52,62,47.5,55,3,3,4,4,"xa","A",163.771999999881,277.578000001609,155.444000005722,244.270000010729,262.774999996026,238.717499997467,166.54699999094,133.238999992609,655.087999999523,555.156000003219,155.444000005722,244.270000010729,788.324999988079,954.869999989867,166.54699999094,133.238999992609,4,2,1,1,3,4,1,1
2,"poor",10,1,4.99611235064,13,28,0.026,16,3,0.019,1,1,0,0,40,1,46,49,62,49,54,49,2,4,5,2,"xa","A",116.583249993622,138.78900000453,0,0,333.095000007749,495.941333328684,0,0,466.332999974489,277.57800000906,0,0,1665.47500003874,1487.82399998605,0,0,4,2,0,0,5,3,0,0
2,"poor",11,0,12.1185370115,5,34,0.061,9,6,0.036,1,1,0,0,18,1,41,44,53,52,47,48,7,5,7,10,"xa","A",186.534000000358,194.30624999851,170.248333334923,385.835749998689,635.656499996781,371.956749998033,260.92499999702,352.526249997318,932.670000001788,777.22499999404,510.745000004768,1543.34299999475,2542.62599998713,1487.82699999213,521.84999999404,1410.10499998927,5,4,3,4,4,4,2,4
2,"poor",12,1,2.18512464332,7,18,0.032,11,10,0.024,1,2,1,0,53,2,43,46,52,51,47.5,48.5,0,1,2,2,"xb","B",0,0,99.9279999881983,0,421.920000001788,199.858500011265,210.961999997497,99.9289999902248,0,0,99.9279999881983,0,421.920000001788,399.717000022531,210.961999997497,99.9289999902248,0,0,1,0,1,2,1,1
2,"poor",13,0,5.93823618966,16,3,0.014,2,11,0.023,0,2,0,1,11,3,49,40,49,56,49,48,2,6,4,3,"xa","A",183.201499991119,166.546000003815,155.444000005722,111.030999988317,415.256799998879,405.264499999583,111.031000003219,133.237000003457,366.402999982238,166.546000003815,155.444000005722,111.030999988317,2076.2839999944,1621.05799999833,111.031000003219,133.237000003457,2,1,1,1,5,4,1,1
2,"poor",14,0,2.16785990055,14,2,0.058,13,28,0.068,0,1,1,0,56,2,47,46,62,62,54.5,54,1,2,3,0,"pa","A",133.238000005484,0,66.6190000027418,188.755000010133,238.718000009656,499.642999991775,77.722000002861,0,133.238000005484,0,66.6190000027418,188.755000010133,477.436000019312,499.642999991775,77.722000002861,0,1,0,1,1,2,1,1,0
2,"poor",15,1,7.67520008289,7,18,0.024,13,28,0.019,1,1,1,0,27,2,43,46,52,62,47.5,54,5,3,4,1,"xa","A",192.454333335161,427.471500009298,244.269499994814,227.615500003099,702.27499999851,588.468000009656,155.444000005722,222.062999993563,577.363000005484,854.943000018597,488.538999989629,455.231000006199,2809.09999999404,588.468000009656,155.444000005722,222.062999993563,3,2,2,2,4,1,1,1
2,"poor",16,1,10.2345760864,8,4,0.025,2,11,0.045,0,2,1,1,1,4,43,40,51,56,47,48,7,6,8,2,"xa","A",291.458750002086,210.96099999547,299.785499993712,303.485666672389,406.059285713094,327.5445000045,122.13599999249,0,1165.83500000834,421.92199999094,1199.14199997485,910.457000017166,2842.41499999166,1310.178000018,122.13599999249,0,4,2,4,3,7,4,1,0
2,"poor",17,0,3.92568250661,17,12,0.071,3,21,0.105,0,1,0,0,37,1,49,41,52,49,50.5,45,1,2,4,2,"xa","A",160.995499998331,188.753999993205,0,310.887999996543,203.55833333234,532.951499998569,122.134999997914,0,321.990999996662,188.753999993205,0,310.887999996543,610.67499999702,1065.90299999714,244.269999995828,0,2,1,0,1,3,2,2,0
2,"poor",18,0,4.24593842874,15,35,0.02,10,32,0.029,0,1,0,1,62,3,48,44,62,70,55,57,2,2,2,4,"pa","A",166.548500001431,194.306499995291,344.199000000954,144.342000007629,333.095666671793,281.28066666921,0,0,333.097000002861,388.612999990582,344.199000000954,288.684000015259,999.287000015378,843.842000007629,0,0,2,2,1,2,3,3,0,0
2,"poor",19,0,2.40507494503,14,2,0.028,11,10,0.039,0,2,0,1,49,3,47,46,62,51,54.5,48.5,1,1,2,1,"xa","A",177.649000003934,177.649999991059,0,0,266.473333338896,366.401000007987,0,0,177.649000003934,177.649999991059,0,0,799.420000016689,366.401000007987,0,0,1,1,0,0,3,1,0,0
2,"poor",20,1,8.6884450206,6,0,0.01,5,34,0.014,0,2,0,0,38,1,41,41,53,53,47,47,3,7,5,1,"pb","B",197.081250000745,236.867000003656,0,0,519.998666668932,444.126249998808,721.704999998212,0,788.32500000298,710.601000010967,0,0,3119.99200001359,1776.50499999523,721.704999998212,0,4,3,0,0,6,4,1,0
2,"poor",21,0,3.44812833455,4,5,0.031,8,4,0.018,1,2,0,0,2,1,41,43,51,51,46,47,3,1,3,3,"xb","B",151.743333334724,172.09849999845,166.545999988914,277.577000007033,216.509000003338,262.774333337943,0,0,455.230000004172,344.196999996901,166.545999988914,277.577000007033,433.018000006676,788.323000013828,0,0,3,2,1,1,2,3,0,0
2,"poor",22,1,2.27923944812,9,6,0.023,4,5,0.037,0,1,1,1,28,4,44,41,52,51,48,46,1,2,2,1,"qa","A",233.167999997735,222.065000012517,55.516999989748,0,222.06400001049,177.651999995112,122.135000005364,66.6200000047684,233.167999997735,222.065000012517,55.516999989748,0,222.06400001049,177.651999995112,244.270000010729,66.6200000047684,1,1,1,0,1,1,2,1
2,"poor",23,0,6.16388691794,14,2,0.086,10,32,0.103,0,2,1,1,63,4,47,44,62,70,54.5,57,3,5,4,3,"xb","B",338.647500000894,260.92499999702,155.443000003695,99.929000005126,410.817499998957,310.889666666587,216.511500000954,177.650999993086,677.295000001788,521.84999999404,155.443000003695,99.929000005126,1643.26999999583,932.668999999762,433.023000001907,355.301999986172,2,2,1,1,4,3,2,2
2,"poor",24,1,5.67604704299,1,1,0.08,2,11,0.066,1,2,1,0,14,2,39,40,47,56,43,48,1,6,3,2,"xb","B",0,0,166.547999992967,321.99200001359,421.920000001788,349.748749993742,166.547499999404,122.135000005364,0,0,166.547999992967,321.99200001359,1687.68000000715,1398.99499997497,333.094999998808,122.135000005364,0,0,1,1,4,4,2,1
2,"poor",25,0,2.46797136017,4,5,0.016,2,11,0.032,0,1,1,1,52,4,41,40,51,56,46,48,1,2,4,1,"xb","B",133.23749999702,177.649999991059,0,0,183.202500000596,233.165999993682,255.373000010848,0,266.47499999404,177.649999991059,0,0,366.405000001192,466.331999987364,510.746000021696,0,2,1,0,0,2,2,2,0
2,"poor",26,1,5.50874568729,10,32,0.029,14,2,0.023,1,2,0,1,64,3,44,47,70,62,57,54.5,1,5,4,1,"xa","A",283.130500003695,166.547999992967,0,0,339.757600000501,573.663000002503,199.857999995351,0,566.261000007391,166.547999992967,0,0,1698.7880000025,1720.98900000751,199.857999995351,0,2,1,0,0,5,3,1,0
2,"poor",27,0,5.78588144941,14,2,0.028,2,11,0.045,0,2,1,1,25,4,47,40,62,56,54.5,48,1,2,5,6,"yb","B",210.960000000894,152.66875000298,172.100000008941,0,418.219666659832,355.30150000006,155.444999992847,55.5160000026226,421.920000001788,610.675000011921,344.200000017881,0,1254.6589999795,1421.20600000024,155.444999992847,55.5160000026226,2,4,2,0,3,4,1,1
2,"poor",28,0,1.99562362389,17,12,0.006,2,11,0.013,0,2,1,1,39,4,49,40,52,56,50.5,48,0,1,2,3,"pb","B",0,149.892499998212,122.137000009418,0,321.990999996662,205.407999992371,133.237999990582,0,0,299.784999996424,122.137000009418,0,321.990999996662,410.815999984741,133.237999990582,0,0,2,1,0,1,2,1,0
2,"poor",29,0,5.22777519346,17,12,0.029,8,4,0.046,0,2,0,0,30,1,49,43,52,51,50.5,47,1,3,2,3,"qb","B",199.856000006199,160.996000006795,0,166.548000007868,510.744666665792,682.845499999821,210.959999993443,122.134999990463,199.856000006199,321.99200001359,0,166.548000007868,1532.23399999738,1365.69099999964,210.959999993443,122.134999990463,1,2,0,1,3,2,1,1
2,"poor",30,0,3.75777135069,5,34,0.047,3,21,0.081,0,1,1,0,20,2,41,41,53,49,47,45,0,2,1,3,"qb","B",0,0,210.959499999881,177.650500006974,299.785500004888,347.899333328009,0,155.443000003695,0,0,421.918999999762,355.301000013947,599.571000009775,1043.69799998403,0,155.443000003695,0,0,2,2,2,3,0,1
2,"poor",31,1,1.67413618797,11,10,0.032,5,34,0.064,0,1,1,1,54,4,46,41,51,53,48.5,47,0,1,1,1,"pb","B",77.722000002861,55.515000000596,0,0,344.199000015855,643.983999997377,0,0,77.722000002861,55.515000000596,0,0,344.199000015855,643.983999997377,0,0,1,1,0,0,1,1,0,0
2,"poor",32,1,3.3713237097,12,14,0.008,5,34,0.014,0,1,0,1,29,3,46,41,50,53,48,47,0,2,3,1,"pb","B",77.722000002861,55.5160000026226,133.23900000751,0,488.539999999106,555.159000001848,266.475999996066,0,77.722000002861,55.5160000026226,133.23900000751,0,977.079999998212,1110.3180000037,266.475999996066,0,1,1,1,0,2,2,1,0
2,"poor",33,0,9.55613555684,13,28,0.02,7,18,0.029,0,2,1,0,31,2,46,43,62,52,54,47.5,6,3,7,3,"pb","B",274.802999995649,144.341000001878,166.547499999404,277.577999994159,766.118600004911,396.011999999483,233.166999995708,0,1099.2119999826,577.36400000751,333.094999998808,277.577999994159,3830.59300002456,1188.03599999845,233.166999995708,0,4,4,2,1,5,3,1,0
2,"poor",34,0,8.01723509778,4,5,0.017,11,10,0.008,1,1,1,1,34,4,41,46,51,51,46,48.5,3,7,6,4,"xa","A",193.195199999213,336.796666666865,0,0,359.001333328585,379.728200003505,210.960000008345,133.237999990582,965.975999996066,1010.3900000006,0,0,2154.00799997151,1898.64100001752,210.960000008345,133.237999990582,5,3,0,0,6,5,1,1
2,"poor",35,0,3.81422898509,15,35,0.009,8,4,0.011,0,1,1,1,3,4,48,43,62,51,55,47,2,2,5,4,"qa","A",149.892499998212,127.68599998951,233.166000001132,199.855999991298,205.407999999821,327.542000003159,116.584500007331,155.443000003695,299.784999996424,255.371999979019,466.332000002265,199.855999991298,410.815999999642,655.084000006318,233.169000014663,155.443000003695,2,2,2,1,2,2,2,1
2,"poor",36,1,3.31679299958,2,11,0.037,17,12,0.016,1,2,1,0,51,2,40,49,56,52,48,50.5,0,4,1,1,"pa","A",55.5160000026226,0,0,0,693.947500012815,321.991999998689,222.061999991536,88.8250000029802,55.5160000026226,0,0,0,1387.89500002563,643.983999997377,222.061999991536,88.8250000029802,1,0,0,0,2,2,1,1
2,"poor",37,1,5.02398002536,9,6,0.059,15,35,0.053,1,1,0,1,19,3,44,48,52,62,48,55,4,3,3,2,"pa","A",155.444333334764,205.408500000834,133.238000005484,199.856000006199,292.383000001311,503.343333328764,144.341999992728,0,466.333000004292,410.817000001669,133.238000005484,199.856000006199,877.149000003934,1510.02999998629,144.341999992728,0,3,2,1,1,3,3,1,0
2,"poor",38,0,9.76438162908,17,12,0.011,3,21,0.02,0,2,0,0,48,1,49,41,52,49,50.5,45,1,4,4,4,"pa","A",210.960333332419,538.50300000608,0,0,452.454249996692,1015.93899999931,166.547999992967,210.961000010371,632.880999997258,1077.00600001216,0,0,1809.81699998677,4063.75599999726,166.547999992967,210.961000010371,3,2,0,0,4,4,1,1
2,"poor",39,0,4.21267176431,2,11,0.017,12,14,0.009,1,2,1,0,4,2,40,46,56,50,48,48,1,4,2,1,"pb","B",244.270000010729,272.02650000155,122.134000003338,0,429.323333337903,327.543999999762,233.166999995708,111.030999988317,244.270000010729,544.053000003099,122.134000003338,0,1287.97000001371,655.087999999523,233.166999995708,111.030999988317,1,2,1,0,3,2,1,1
2,"poor",40,1,8.06913045152,7,18,0.024,2,11,0.031,0,1,1,1,8,4,43,40,52,56,47.5,48,5,2,10,5,"xa","A",199.857249993831,192.455000003179,238.718249998987,318.290333330631,163.771499998868,314.5896666646,158.220249999315,177.650999993086,799.428999975324,577.365000009537,954.872999995947,954.870999991894,655.08599999547,943.768999993801,632.880999997258,177.650999993086,4,3,4,3,4,3,4,1
2,"poor",41,1,4.28754724843,3,21,0.012,5,34,0.007,1,2,0,0,21,1,41,41,49,53,45,47,1,2,5,1,"pa","A",329.394333332777,244.269000008702,0,0,259.074000000954,471.884499996901,155.444999992847,0,988.182999998331,244.269000008702,0,0,777.222000002861,943.768999993801,155.444999992847,0,3,1,0,0,3,2,1,0
2,"poor",42,1,1.96708852133,11,10,0.016,6,0,0.021,0,2,1,1,55,4,46,41,51,53,48.5,47,0,4,2,1,"xb","B",111.031999990344,0,0,55.515000000596,266.477499999106,155.445500001311,122.13599999249,66.6200000047684,111.031999990344,0,0,55.515000000596,532.954999998212,310.891000002623,122.13599999249,66.6200000047684,1,0,0,1,2,2,1,1
2,"poor",43,1,3.28826676279,12,14,0.03,15,35,0.027,1,1,1,0,44,2,46,48,50,62,48,55,1,1,4,1,"pa","A",111.032000005245,0,94.3765000030398,222.064999997616,638.433500006795,399.715000003576,144.341999992728,0,111.032000005245,0,188.75300000608,222.064999997616,1276.86700001359,399.715000003576,144.341999992728,0,1,0,2,1,2,1,1,0
2,"poor",44,0,2.06755511128,15,35,0.026,7,18,0.047,0,2,0,0,43,1,48,43,62,52,55,47.5,1,1,2,1,"xa","A",138.788999997079,210.960000008345,0,0,194.304999999702,499.641000002623,0,0,277.577999994159,210.960000008345,0,0,388.609999999404,499.641000002623,0,0,2,1,0,0,2,1,0,0
2,"poor",45,1,4.47206153745,1,1,0.021,17,12,0.01,1,2,1,1,47,4,39,49,47,52,43,50.5,1,3,5,1,"qa","A",144.341000005603,177.651000007987,210.959999993443,0,507.045999998848,455.230500005186,183.20300000906,0,288.682000011206,177.651000007987,210.959999993443,0,1521.13799999654,910.461000010371,366.40600001812,0,2,1,1,0,3,2,2,0
2,"poor",46,1,4.0976957532,3,21,0.018,13,28,0.01,1,2,0,1,15,3,41,46,49,62,45,54,2,4,1,2,"qa","A",210.959999993443,244.269999995828,55.515000000596,210.958999991417,584.76666667064,262.775666664044,0,0,210.959999993443,244.269999995828,55.515000000596,210.958999991417,1754.30000001192,788.326999992132,0,0,1,1,1,1,3,3,0,0
2,"poor",47,1,2.00906000729,2,11,0.017,14,2,0.01,1,2,1,0,57,2,40,47,56,62,48,54.5,0,1,4,0,"xb","B",0,0,149.892500005662,0,305.336499989033,288.680999994278,222.062999993563,0,0,0,299.785000011325,0,610.672999978065,288.680999994278,222.062999993563,0,0,0,2,0,2,1,1,0
2,"poor",48,0,4.34538656096,5,34,0.017,9,6,0.009,1,1,0,0,9,1,41,44,53,52,47,48,2,2,4,2,"xb","B",151.744000002742,155.444000005722,122.136000007391,133.237999990582,344.197999998927,514.446333338817,122.134000003338,0,455.232000008225,155.444000005722,122.136000007391,133.237999990582,688.395999997854,1543.33900001645,122.134000003338,0,3,1,1,1,2,3,1,0
2,"poor",49,0,4.11357937197,14,2,0.004,3,21,0.009,0,2,0,1,42,3,47,41,62,49,54.5,45,1,2,2,3,"xb","B",162.846666668852,166.547999992967,0,133.238999992609,671.741499997675,255.372666661938,0,111.031000003219,488.540000006557,166.547999992967,0,133.238999992609,1343.48299999535,766.117999985814,0,111.031000003219,3,1,0,1,2,3,0,1
2,"poor",50,1,4.32105356628,11,10,0.067,15,35,0.041,1,1,1,0,60,2,46,48,51,62,48.5,55,1,4,5,2,"qb","B",149.893500000238,177.650999993086,66.6190000027418,222.062999993563,358.076999995857,329.394666666786,122.135000005364,0,299.787000000477,177.650999993086,66.6190000027418,222.062999993563,1432.30799998343,988.184000000358,122.135000005364,0,2,1,1,1,4,3,1,0
2,"poor",51,1,2.64348188428,12,14,0.021,5,34,0.042,0,1,1,1,33,4,46,41,50,53,48,47,0,4,4,0,"qa","A",138.790000006557,0,55.5170000046492,0,266.476666669051,216.512000001967,222.061999991536,0,277.580000013113,0,55.5170000046492,0,799.430000007153,433.024000003934,222.061999991536,0,2,0,1,0,3,2,1,0
2,"poor",52,0,2.02598591059,12,14,0.011,1,1,0.019,0,1,0,0,59,1,46,39,50,47,48,43,0,2,0,0,"xa","A",0,0,0,0,183.201999999583,1132.52299998701,0,0,0,0,0,0,366.403999999166,1132.52299998701,0,0,0,0,0,0,2,1,0,0
2,"poor",53,0,5.55219305039,4,5,0.058,17,12,0.029,1,2,0,1,58,3,41,49,51,52,46,50.5,1,2,2,3,"pb","B",155.443999990821,299.785000003874,0,166.548000007868,499.642333328724,381.207333331307,299.787000000477,0,155.443999990821,599.570000007749,0,166.548000007868,1498.92699998617,1143.62199999392,299.787000000477,0,1,2,0,1,3,3,1,0
2,"poor",54,1,4.74816637432,7,18,0.025,15,35,0.013,1,2,0,0,7,1,43,48,52,62,47.5,55,2,1,6,5,"xa","A",158.219500005245,227.615500003099,266.47499999404,133.238000005484,281.278999994199,283.130999997258,310.886999994516,94.3765000030398,632.878000020981,455.231000006199,266.47499999404,133.238000005484,843.836999982595,566.261999994516,310.886999994516,188.75300000608,4,2,1,1,3,2,1,2
2,"poor",55,0,4.04645369743,5,34,0.086,11,10,0.056,1,1,0,1,23,3,41,46,53,51,47,48.5,1,4,2,1,"xa","A",255.370999991894,0,199.855999991298,266.475000008941,314.58900000155,555.156999997795,299.785000011325,77.7219999879599,255.370999991894,0,199.855999991298,266.475000008941,943.767000004649,1110.31399999559,299.785000011325,77.7219999879599,1,0,1,1,3,2,1,1
2,"poor",56,0,3.27564658631,5,34,0.007,6,0,0.005,1,2,0,0,50,1,41,41,53,53,47,47,1,0,1,3,"pa","A",116.583000004292,227.614999994636,0,0,777.222000017762,555.158500000834,0,0,233.166000008583,455.229999989271,0,0,777.222000017762,1110.31700000167,0,0,2,2,0,0,1,2,0,0
2,"poor",57,0,2.27483093351,16,3,0.011,12,14,0.022,0,1,0,1,46,3,49,46,49,50,49,48,0,3,0,1,"pb","B",0,55.515000000596,0,0,377.508000001311,427.472000002861,0,0,0,55.515000000596,0,0,755.016000002623,854.944000005722,0,0,0,1,0,0,2,2,0,0
2,"poor",58,1,5.26149124268,16,3,0.029,5,34,0.046,0,1,0,1,45,3,49,41,49,53,49,47,4,2,3,4,"pa","A",113.807999994606,158.219750002027,0,0,447.828000004093,481.139333332578,0,0,455.231999978423,632.879000008106,0,0,1343.48400001228,1443.41799999774,0,0,4,4,0,0,3,3,0,0
2,"poor",59,1,4.03906156711,11,10,0.073,15,35,0.038,1,2,0,1,13,3,46,48,51,62,48.5,55,2,3,3,1,"pa","A",196.156333327293,310.887999996543,155.444000005722,0,471.884000003338,377.506999999285,88.8249999880791,155.444000005722,588.46899998188,310.887999996543,155.444000005722,0,943.768000006676,755.013999998569,88.8249999880791,155.444000005722,3,1,1,0,2,2,1,1
2,"rich",0,1,3.40728280405,4,15,0.032,7,45,0.018,1,1,0,1,48,3,68,78,80,86,74,82,0,3,0,0,"xb","B",0,0,0,0,1004.83749999851,338.646999999881,0,0,0,0,0,0,2009.67499999702,677.293999999762,0,0,0,0,0,0,2,2,0,0
2,"rich",1,1,7.03565405573,17,42,0.041,11,39,0.056,0,1,1,1,40,4,100,90,99,88,99.5,89,1,6,3,4,"ya","A",277.579000003636,338.646500006318,0,0,380.283749993891,386.390399998426,83.2739999964833,155.445000007749,555.158000007272,677.293000012636,0,0,1521.13499997556,1931.95199999213,166.547999992967,155.445000007749,2,2,0,0,4,5,2,1
2,"rich",2,1,7.9169272609,6,31,0.036,13,43,0.028,1,1,0,1,53,3,74,93,79,98,76.5,95.5,4,5,4,3,"pb","B",192.455333332221,149.892999999225,244.269999995828,160.995000004768,433.023600000143,457.450400003791,0,0,577.365999996662,299.78599999845,488.539999991655,321.990000009537,2165.11800000072,2287.25200001895,0,0,3,2,2,2,5,5,0,0
2,"rich",3,1,7.3871183935,4,15,0.024,6,31,0.013,1,1,0,0,62,1,68,74,80,79,74,76.5,1,4,4,1,"xb","B",133.238333334525,266.475999996066,0,0,910.460250001401,592.169666662812,0,0,399.715000003576,266.475999996066,0,0,3641.8410000056,1776.50899998844,0,0,3,1,0,0,4,3,0,0
2,"rich",4,0,1.95980859865,1,41,0.041,3,17,0.021,1,2,0,1,45,3,63,67,57,76,60,71.5,1,2,0,1,"pa","A",222.063000008464,177.65000000596,0,0,621.778999999166,233.166999995708,0,0,222.063000008464,177.65000000596,0,0,621.778999999166,466.333999991417,0,0,1,1,0,0,1,2,0,0
2,"rich",5,1,2.42495343382,13,43,0.03,16,44,0.022,1,1,1,0,31,2,93,98,98,100,95.5,99,0,2,1,0,"xb","B",77.7219999879599,0,0,0,310.889500007033,477.436499997973,0,0,77.7219999879599,0,0,0,621.779000014067,954.872999995947,0,0,1,0,0,0,2,2,0,0
2,"rich",6,1,2.67486235168,3,17,0.067,8,25,0.034,1,1,1,0,38,2,67,80,76,83,71.5,81.5,1,3,4,1,"pa","A",55.5160000026226,0,155.443500004709,199.858000010252,199.856500007212,388.609999999404,155.443500004709,133.236000001431,55.5160000026226,0,310.887000009418,199.858000010252,399.713000014424,388.609999999404,310.887000009418,133.236000001431,1,0,2,1,2,1,2,1
2,"rich",7,1,4.14120628507,12,20,0.034,9,33,0.037,0,2,1,1,15,4,92,82,94,85,93,83.5,1,2,4,2,"pa","A",107.330666661263,210.961000010371,0,122.134000003338,373.806666667263,721.705999985337,222.063999995589,377.506999999285,321.991999983788,210.961000010371,0,122.134000003338,1121.42000000179,721.705999985337,222.063999995589,377.506999999285,3,1,0,1,3,1,1,1
2,"rich",8,1,13.3634464544,8,25,0.014,7,45,0.022,0,1,0,0,37,1,80,78,83,86,81.5,82,2,8,14,5,"pa","A",183.995428570679,388.611000001431,410.817999996245,177.650999993086,531.56400000304,421.919799998403,166.547333334883,177.650999993086,1287.96799999475,1165.83300000429,821.63599999249,177.650999993086,4252.51200002432,2109.59899999201,499.642000004649,177.650999993086,7,3,2,1,8,5,3,1
2,"rich",9,0,3.77449528022,7,45,0.115,15,26,0.066,1,1,0,0,10,1,78,97,86,96,82,96.5,0,4,3,1,"pb","B",210.958999998868,188.754000008106,0,0,455.229000007113,251.671666661898,66.6190000027418,0,421.917999997735,188.754000008106,0,0,1365.68700002134,755.014999985695,66.6190000027418,0,2,1,0,0,3,3,1,0
2,"rich",10,1,18.758792579,13,43,0.026,16,44,0.019,1,1,0,0,47,1,93,98,98,100,95.5,99,3,9,7,7,"pa","A",140.639833333592,330.873999997973,66.6190000027418,0,729.636857139213,785.857666666309,199.857999995351,222.062999993563,843.83900000155,1654.36999998987,66.6190000027418,0,5107.45799997449,7072.71899999678,199.857999995351,222.062999993563,6,5,1,0,7,9,1,1
2,"rich",11,1,1.72706883926,5,29,0.061,9,33,0.036,1,1,0,0,49,1,68,82,52,85,60,83.5,0,1,1,0,"pa","A",61.0675000026822,0,0,0,466.334999993443,544.053999990225,0,0,122.135000005364,0,0,0,466.334999993443,544.053999990225,0,0,2,0,0,0,1,1,0,0
2,"rich",12,0,2.60396483717,11,39,0.024,7,45,0.032,0,2,1,0,61,2,90,78,88,86,89,82,0,3,1,2,"yb","B",0,0,88.8259999901056,255.372999995947,460.782000012696,283.131999999285,0,55.5160000026226,0,0,88.8259999901056,255.372999995947,921.564000025392,566.263999998569,0,55.5160000026226,0,0,1,1,2,2,0,1
2,"rich",13,1,4.79163174608,2,37,0.023,16,44,0.014,1,2,0,1,0,3,64,98,83,100,73.5,99,1,4,3,4,"xa","A",188.753999993205,194.305500000715,166.547000005841,299.78599999845,330.31950000301,277.579666664203,133.237999990582,210.96099999547,188.753999993205,388.611000001431,166.547000005841,299.78599999845,1321.27800001204,832.738999992609,133.237999990582,210.96099999547,1,2,1,1,4,3,1,1
2,"rich",14,1,7.45550356446,14,38,0.058,13,43,0.068,0,1,1,0,7,2,97,93,86,98,91.5,95.5,3,3,5,6,"pa","A",188.754000000656,105.479500003159,229.466000000636,222.062999993563,419.14374999702,503.341666668653,155.443999990821,155.444500006735,377.508000001311,210.959000006318,688.398000001907,666.188999980688,1676.57499998808,1510.02500000596,155.443999990821,310.889000013471,2,2,3,3,4,3,1,2
2,"rich",15,0,4.55056894828,7,45,0.024,13,43,0.019,1,1,1,0,30,2,78,93,86,98,82,95.5,3,5,1,3,"xb","B",155.444999992847,122.135000005364,344.199000000954,194.306499995291,360.853749997914,241.494750000536,0,133.238999992609,155.444999992847,122.135000005364,344.199000000954,388.612999990582,1443.41499999166,965.979000002146,0,133.238999992609,1,1,1,2,4,4,0,1
2,"rich",16,1,3.90469884155,8,25,0.025,2,37,0.045,0,2,1,1,1,4,80,64,83,83,81.5,73.5,0,3,5,2,"xa","A",333.093999996781,188.751999989152,177.65000000596,0,249.820750001818,321.990000002086,272.025499992073,177.65000000596,333.093999996781,188.751999989152,177.65000000596,0,999.283000007272,643.980000004172,544.050999984145,177.65000000596,1,1,1,0,4,2,2,1
2,"rich",17,0,1.65123058566,17,42,0.071,3,17,0.105,0,1,0,0,8,1,100,67,99,76,99.5,71.5,0,1,2,0,"xb","B",111.030000001192,0,0,0,222.062000006437,621.77500000596,133.236999988556,0,111.030000001192,0,0,0,222.062000006437,621.77500000596,133.236999988556,0,1,0,0,0,1,1,1,0
2,"rich",18,1,15.6207211822,10,22,0.029,15,26,0.02,1,1,0,1,4,3,84,97,84,96,84,96.5,5,5,9,8,"pa","A",259.8143999964,286.461800000072,177.650666669011,251.672333329916,596.795249996707,369.576571430479,138.789999999106,455.230000004172,1299.071999982,1432.30900000036,532.952000007033,755.016999989748,4774.36199997365,2587.03600001335,277.579999998212,455.230000004172,5,5,3,3,8,7,2,1
2,"rich",19,1,1.85353186795,11,39,0.039,14,38,0.028,1,2,0,1,60,3,90,97,88,86,89,91.5,0,1,0,1,"xa","A",0,111.031999990344,0,0,177.652000002563,388.61400000751,0,0,0,111.031999990344,0,0,355.304000005126,388.61400000751,0,0,0,1,0,0,2,1,0,0
2,"rich",20,1,3.49740994225,5,29,0.014,6,31,0.01,1,2,0,0,51,1,68,74,52,79,60,76.5,1,5,1,1,"xb","B",277.578999996185,244.269999995828,0,0,484.840000003576,158.220499999821,0,0,277.578999996185,244.269999995828,0,0,1454.52000001073,632.881999999285,0,0,1,1,0,0,3,4,0,0
2,"rich",21,1,2.80579595549,4,15,0.031,8,25,0.018,1,2,0,0,52,1,68,80,80,83,74,81.5,0,3,1,0,"xa","A",166.548000007868,0,0,0,296.083666662375,366.403999999166,0,0,166.548000007868,0,0,0,888.250999987125,732.807999998331,0,0,1,0,0,0,3,2,0,0
2,"rich",22,1,6.01720129696,4,15,0.037,9,33,0.023,1,1,1,1,29,4,68,82,80,85,74,83.5,0,4,3,0,"xb","B",122.13599999249,0,88.8249999880791,0,932.66566666464,518.14733333389,188.754000008106,0,122.13599999249,0,88.8249999880791,0,2797.99699999392,1554.44200000167,188.754000008106,0,1,0,1,0,3,3,1,0
2,"rich",23,0,11.7248097249,10,22,0.103,14,38,0.086,1,2,1,1,12,4,84,97,84,86,84,91.5,1,4,5,6,"pb","B",183.201999999583,266.475666667024,410.815999999642,1032.59499999881,682.843749996275,785.548000007868,238.717500008643,327.543499998748,366.403999999166,799.427000001073,410.815999999642,1032.59499999881,2731.3749999851,3142.19200003147,477.435000017285,655.086999997497,2,3,1,1,4,4,2,2
2,"rich",24,1,7.75011047607,2,37,0.066,1,41,0.08,0,2,1,0,21,2,64,63,83,57,73.5,60,4,2,6,3,"qa","A",455.229000002146,0,233.16666666915,297.009249996394,347.900000000993,466.332666665316,188.754499994218,99.929000005126,455.229000002146,0,1399.0000000149,1188.03699998558,1043.70000000298,1398.99799999595,377.508999988437,99.929000005126,1,0,6,4,3,3,2,1
2,"rich",25,1,3.79579562024,4,15,0.016,2,37,0.032,0,1,1,1,36,4,68,64,80,83,74,73.5,1,3,2,1,"xb","B",138.789999991655,288.680999994278,0,0,410.818000003695,505.194499999285,111.032000005245,255.372000008821,277.579999983311,288.680999994278,0,0,821.636000007391,1010.38899999857,111.032000005245,255.372000008821,2,1,0,0,2,2,1,1
2,"rich",26,0,1.77557746084,14,38,0.023,10,22,0.029,0,2,0,1,13,3,97,84,86,84,91.5,84,0,2,1,0,"xb","B",122.135000005364,0,0,0,310.887000001967,227.615500003099,0,0,122.135000005364,0,0,0,621.774000003934,455.231000006199,0,0,1,0,0,0,2,2,0,0
2,"rich",27,0,7.15906198823,2,37,0.045,14,38,0.028,1,2,1,1,22,4,64,97,83,86,73.5,91.5,3,1,7,3,"ya","A",188.754333337148,255.373000000914,155.443499997258,355.300999999046,225.764666666587,988.180999986827,199.856666664282,0,566.263000011444,766.119000002742,310.886999994516,355.300999999046,677.293999999762,1976.36199997365,599.569999992847,0,3,3,2,1,3,2,3,0
2,"rich",28,1,2.99194903056,2,37,0.013,17,42,0.006,1,2,1,1,32,4,64,100,83,99,73.5,99.5,1,2,3,2,"pa","A",238.718000002205,155.444999992847,0,255.373000010848,388.611500002444,210.959999993443,77.7230000048876,122.136000007391,477.436000004411,155.444999992847,0,255.373000010848,777.223000004888,210.959999993443,77.7230000048876,122.136000007391,2,1,0,1,2,1,1,1
2,"rich",29,0,1.81909436498,17,42,0.029,8,25,0.046,0,2,0,0,55,1,100,80,99,83,99.5,81.5,0,3,0,0,"xb","B",0,0,0,0,344.197500005364,222.063000001013,0,0,0,0,0,0,688.395000010729,444.126000002027,0,0,0,0,0,0,2,2,0,0
2,"rich",30,1,3.68639979343,5,29,0.047,3,17,0.081,0,1,1,0,27,2,68,67,52,76,60,71.5,0,4,3,2,"pa","A",122.134000003338,166.548000007868,166.548000007868,0,499.643666664759,214.661666661501,122.134999990463,0,122.134000003338,166.548000007868,166.548000007868,0,1498.93099999428,643.984999984503,122.134999990463,0,1,1,1,0,3,3,1,0
2,"rich",31,1,2.33342051362,5,29,0.064,11,39,0.032,1,1,1,1,44,4,68,90,52,88,60,89,0,1,1,2,"ya","A",421.922999992967,0,0,133.237999990582,410.819000005722,216.511999994516,55.5160000026226,166.548000007868,421.922999992967,0,0,133.237999990582,410.819000005722,433.023999989033,55.5160000026226,166.548000007868,1,0,0,1,1,2,1,1
2,"rich",32,0,4.51256961378,12,20,0.008,5,29,0.014,0,1,0,1,23,3,92,68,94,52,93,60,1,2,1,1,"xa","A",155.445000007749,288.682999998331,0,0,444.125999994576,1121.4185000211,0,0,155.445000007749,288.682999998331,0,0,888.251999989152,2242.8370000422,0,0,1,1,0,0,2,2,0,0
2,"rich",33,0,4.01172251515,7,45,0.029,13,43,0.02,1,2,1,0,26,2,78,93,86,98,82,95.5,1,2,1,4,"xb","B",0,0,399.714999988675,144.341000000636,616.224500007927,244.26933332781,0,166.547999992967,0,0,399.714999988675,433.023000001907,1232.44900001585,732.80799998343,0,166.547999992967,0,0,1,3,2,3,0,1
2,"rich",34,0,2.32348888826,11,39,0.008,4,15,0.017,0,1,1,1,25,4,90,68,88,80,89,74,0,1,1,3,"qb","B",0,133.237999990582,0,144.341999992728,421.921000003815,610.675999999046,166.54699999094,166.547000005841,0,133.237999990582,0,144.341999992728,421.921000003815,610.675999999046,166.54699999094,166.547000005841,0,1,0,1,1,1,1,1
2,"rich",35,1,3.78597703372,8,25,0.011,15,26,0.009,1,1,1,1,41,4,80,97,83,96,81.5,96.5,1,3,3,1,"pa","A",172.098500005901,310.888999998569,0,0,462.632333333294,377.508499994874,277.57800000906,0,344.197000011802,310.888999998569,0,0,1387.89699999988,755.016999989748,277.57800000906,0,2,1,0,0,3,2,1,0
2,"rich",36,0,5.12074708696,17,42,0.016,2,37,0.037,0,2,1,0,39,2,100,64,99,83,99.5,73.5,2,5,4,1,"pb","B",155.443500004709,149.892500005662,133.238000005484,0,530.176249995828,333.095666666826,88.8260000050068,0,310.887000009418,299.785000011325,133.238000005484,0,2120.70499998331,999.287000000477,88.8260000050068,0,2,2,1,0,4,3,1,0
2,"rich",37,0,3.45093408035,15,26,0.053,9,33,0.059,0,1,0,1,63,3,97,82,96,85,96.5,83.5,1,4,1,1,"xb","B",133.237000003457,155.444000005722,0,0,370.10566667219,351.600666667024,0,0,133.237000003457,155.444000005722,0,0,1110.31700001657,1054.80200000107,0,0,1,1,0,0,3,3,0,0
2,"rich",38,1,1.63734232399,3,17,0.02,17,42,0.011,1,2,0,0,18,1,67,100,76,99,71.5,99.5,0,2,0,0,"xa","A",0,0,0,0,333.095499999821,444.126999989152,0,0,0,0,0,0,666.190999999642,444.126999989152,0,0,0,0,0,0,2,1,0,0
2,"rich",39,1,1.81438746111,12,20,0.009,2,37,0.017,0,2,1,0,20,2,92,64,94,83,93,73.5,0,2,2,0,"xa","A",0,0,166.547000005841,0,394.162000007927,266.475999996066,188.754999995232,0,0,0,166.547000005841,0,788.324000015855,266.475999996066,188.754999995232,0,0,0,1,0,2,1,1,0
2,"rich",40,1,7.53083175803,2,37,0.031,7,45,0.024,1,1,1,1,3,4,64,78,83,86,73.5,82,1,5,7,4,"xb","B",218.362333332499,210.960000000894,166.54699999094,133.237000003457,559.598799994588,277.578250005841,183.202500000596,277.578999996185,655.086999997497,421.920000001788,166.54699999094,133.237000003457,2797.99399997294,1110.31300002337,366.405000001192,277.578999996185,3,2,1,1,5,4,2,1
2,"rich",41,1,17.6101285013,5,29,0.007,3,17,0.012,0,2,0,0,28,1,68,67,52,76,60,71.5,2,7,5,4,"pa","A",499.641750000417,488.538999997079,210.959999993443,210.960000008345,880.850500004987,785.153000001396,133.237000003457,777.222000002861,1998.56700000167,977.077999994159,210.959999993443,210.960000008345,5285.10300002992,5496.07100000978,133.237000003457,777.222000002861,4,2,1,1,6,7,1,1
2,"rich",42,1,4.69247008974,6,31,0.021,11,39,0.016,1,2,1,1,14,4,74,90,79,88,76.5,89,1,4,6,1,"pa","A",125.835333332419,155.443999990821,433.023000001907,0,305.33750000596,344.196999996901,160.995999999344,0,377.505999997258,155.443999990821,433.023000001907,0,1221.35000002384,1032.5909999907,321.991999998689,0,3,1,1,0,4,3,2,0
2,"rich",43,1,2.26338187262,12,20,0.03,15,26,0.027,1,1,1,0,57,2,92,97,94,96,93,96.5,0,2,4,0,"qa","A",0,0,133.238000005484,0,327.543499998748,244.269999995828,277.579000011086,0,0,0,399.714000016451,0,655.086999997497,244.269999995828,277.579000011086,0,0,0,3,0,2,1,1,0
2,"rich",44,1,4.48178149205,7,45,0.047,15,26,0.026,1,2,0,0,46,1,78,97,86,96,82,96.5,0,1,2,2,"xb","B",244.269999995828,122.134999990463,0,0,749.46400000155,325.69266666472,277.578999996185,210.958999991417,244.269999995828,122.134999990463,0,0,1498.9280000031,977.077999994159,277.578999996185,210.958999991417,1,1,0,0,2,3,1,1
2,"rich",45,1,2.06540487989,1,41,0.021,17,42,0.01,1,2,1,1,33,4,63,100,57,99,60,99.5,1,0,1,1,"pa","A",210.959000006318,99.9280000030994,0,0,344.20000000298,210.958000004292,199.856000006199,0,210.959000006318,99.9280000030994,0,0,344.20000000298,210.958000004292,199.856000006199,0,1,1,0,0,1,1,1,0
2,"rich",46,1,1.60232632817,3,17,0.018,13,43,0.01,1,2,0,1,50,3,67,93,76,98,71.5,95.5,0,2,0,0,"xa","A",0,0,0,0,344.197500005364,321.990999996662,0,0,0,0,0,0,688.395000010729,321.990999996662,0,0,0,0,0,0,2,1,0,0
2,"rich",47,1,1.97230797874,14,38,0.01,2,37,0.017,0,2,1,0,43,2,97,64,86,83,91.5,73.5,0,2,1,0,"xa","A",0,0,99.9280000030994,0,460.781500004232,377.508999988437,0,0,0,0,99.9280000030994,0,921.563000008464,377.508999988437,0,0,0,0,1,0,2,1,0,0
2,"rich",48,1,2.11917202377,9,33,0.009,5,29,0.017,0,1,0,0,54,1,82,68,85,52,83.5,60,0,2,2,0,"pa","A",149.892999991775,0,0,0,355.301000006497,532.954999998212,0,0,299.785999983549,0,0,0,710.602000012994,532.954999998212,0,0,2,0,0,0,2,1,0,0
2,"rich",49,0,11.8479250863,14,38,0.004,3,17,0.009,0,2,0,1,17,3,97,67,86,76,91.5,71.5,2,5,6,4,"pb","B",133.238000005484,377.507500000298,355.302500002086,177.652999997139,552.940000000596,482.989166662097,299.786000008384,0,133.238000005484,755.015000000596,710.605000004172,177.652999997139,2764.70000000298,2897.93499997258,899.358000025153,0,1,2,2,1,5,6,3,0
2,"rich",50,1,24.0903803674,15,26,0.041,11,39,0.067,0,1,1,0,5,2,97,90,96,88,96.5,89,7,16,12,8,"ya","A",141.56550000608,199.85625000298,223.64971428471,284.981666664282,446.145454548977,850.906000001864,144.342000000179,266.476333330075,566.262000024319,799.425000011921,1565.54799999297,854.944999992847,4907.60000003874,9359.9660000205,577.368000000715,799.428999990225,4,4,7,3,11,11,4,3
2,"rich",51,0,5.12845589228,12,20,0.021,5,29,0.042,0,1,1,1,64,4,92,68,94,52,93,60,1,4,1,3,"pb","B",188.754000008106,111.032000005245,0,0,1093.66199999303,336.797000000874,477.436000004411,88.8250000029802,188.754000008106,222.06400001049,0,0,2187.32399998605,1010.39100000262,477.436000004411,88.8250000029802,1,2,0,0,2,3,1,1
2,"rich",52,1,7.01975159715,12,20,0.011,1,41,0.019,0,1,0,0,2,1,92,63,94,57,93,60,2,3,8,3,"qa","A",159.885800001025,199.856500007212,233.166999995708,0,446.90225000307,410.817000006636,349.749499998987,188.753999993205,799.429000005126,399.713000014424,233.166999995708,0,1787.60900001228,1232.45100001991,699.498999997973,188.753999993205,5,2,1,0,4,3,2,1
2,"rich",53,1,4.63957290159,4,15,0.058,17,42,0.029,1,2,0,1,9,3,68,100,80,99,74,99.5,1,2,2,2,"xa","A",210.961000010371,0,244.269999995828,155.444000005722,588.468333328764,527.400999993086,0,133.238000005484,210.961000010371,0,244.269999995828,155.444000005722,1765.40499998629,1054.80199998617,0,133.238000005484,1,0,1,1,3,2,0,1
2,"rich",54,1,2.57789774917,15,26,0.013,7,45,0.025,0,2,0,0,35,1,97,78,96,86,96.5,82,2,1,2,0,"pa","A",173.949999998013,199.857000008225,111.031999990344,0,255.373999997973,555.157999992371,0,0,521.84999999404,199.857000008225,111.031999990344,0,255.373999997973,555.157999992371,0,0,3,1,1,0,1,1,0,0
2,"rich",55,0,1.85561920762,11,39,0.056,5,29,0.086,0,1,0,1,11,3,90,68,88,52,89,60,0,1,1,1,"pb","B",88.8259999901056,55.515000000596,0,0,333.092999994755,710.604000002146,0,0,88.8259999901056,55.515000000596,0,0,333.092999994755,710.604000002146,0,0,1,1,0,0,1,1,0,0
2,"rich",56,0,16.1895231839,6,31,0.005,5,29,0.007,0,2,0,0,6,1,74,68,79,52,76.5,60,4,3,15,10,"pa","A",301.173124996945,277.579333330194,266.47800000757,218.363000005484,392.775875005871,499.642166664203,214.660666669408,185.053999995192,2409.38499997556,832.737999990582,532.95600001514,655.089000016451,3142.20700004697,2997.85299998522,643.982000008225,555.161999985576,8,3,2,3,8,6,3,3
2,"rich",57,0,6.67761739623,16,44,0.011,12,20,0.022,0,1,0,1,34,3,98,92,100,94,99,93,1,7,2,3,"xb","B",122.134999990463,199.857000008225,0,66.6189999878407,852.168500002474,182.091999995708,222.063000008464,144.342000007629,122.134999990463,199.857000008225,0,66.6189999878407,3408.67400000989,910.459999978542,222.063000008464,144.342000007629,1,1,0,1,4,5,1,1
2,"rich",58,1,1.83823422257,5,29,0.046,16,44,0.029,1,1,0,1,59,3,68,98,52,100,60,99,0,2,2,0,"qa","A",0,0,160.996500000358,0,305.336999997497,344.197999998927,0,0,0,0,321.993000000715,0,610.673999994993,344.197999998927,0,0,0,0,2,0,2,1,0,0
2,"rich",59,1,1.84969713626,15,26,0.038,11,39,0.073,0,2,0,1,56,3,97,90,96,88,96.5,89,0,2,1,0,"pa","A",588.468999996781,0,0,0,227.616500005126,188.753999993205,0,0,588.468999996781,0,0,0,455.233000010252,188.753999993205,0,0,1,0,0,0,2,1,0,0
3,"poor",0,1,2.80866249457,7,23,0.018,4,11,0.032,0,1,0,1,63,3,25,20,20,15,22.5,17.5,1,1,1,2,"xb","B",233.166000008583,266.474500000477,199.855999991298,0,277.577999994159,125.835333332419,0,0,233.166000008583,532.949000000954,199.855999991298,0,555.155999988317,377.505999997258,0,0,1,2,1,0,2,3,0,0
3,"poor",1,1,7.34676741908,17,14,0.041,11,5,0.056,0,1,1,0,23,2,40,30,20,20,30,25,1,5,3,2,"xa","A",111.031999990344,277.581000000238,216.512000001967,0,399.71440000236,399.713750004768,0,266.473999992013,111.031999990344,277.581000000238,433.024000003934,0,1998.5720000118,1598.85500001907,0,266.473999992013,1,1,2,0,5,4,0,1
3,"poor",2,1,4.15892192999,6,0,0.036,13,33,0.028,1,1,1,0,48,2,25,35,20,40,22.5,37.5,1,4,1,2,"xa","A",166.548000007868,155.444000005722,166.547000005841,210.958999991417,299.784666667382,488.537333334486,0,0,166.548000007868,155.444000005722,166.547000005841,210.958999991417,899.354000002146,1465.61200000346,0,0,1,1,1,1,3,3,0,0
3,"poor",3,0,4.47189541905,4,11,0.024,6,0,0.013,1,2,1,1,16,4,20,25,15,20,17.5,22.5,0,2,7,1,"pb","B",174.874749999493,55.515000000596,133.238000005484,0,214.66099999845,159.144999995828,99.9289999902248,0,699.498999997973,55.515000000596,133.238000005484,0,643.982999995351,477.434999987483,199.85799998045,0,4,1,1,0,3,3,2,0
3,"poor",4,0,8.83141490386,3,19,0.021,1,21,0.041,0,2,0,1,0,3,15,15,30,10,22.5,12.5,3,1,5,8,"xa","A",346.418599995971,266.475499998778,288.681999996305,294.231999993324,313.66400000453,299.785499999921,0,0,1732.09299997985,1065.90199999511,288.681999996305,588.463999986649,1254.65600001812,1798.71299999952,0,0,5,4,1,2,4,6,0,0
3,"poor",5,1,14.1684523862,16,13,0.022,13,33,0.03,0,1,1,1,62,4,40,35,25,40,32.5,37.5,9,6,4,6,"pa","A",282.336428572025,603.732125002891,0,0,375.286199995875,460.780333335201,199.855999991298,0,1976.35500000417,4829.85700002313,0,0,1876.43099997938,2764.68200001121,199.855999991298,0,7,8,0,0,5,6,1,0
3,"poor",6,0,4.23925991639,3,19,0.067,8,4,0.034,1,1,0,1,45,3,15,25,30,35,22.5,30,0,3,5,2,"xa","A",122.134000003338,166.547000005841,233.166999988258,0,208.184749994427,344.197666669885,177.65000000596,0,122.134000003338,166.547000005841,466.333999976516,0,832.738999977708,1032.59300000966,177.65000000596,0,1,1,2,0,4,3,1,0
3,"poor",7,1,3.58560759533,9,29,0.037,12,18,0.034,1,2,1,1,36,4,30,30,30,35,30,32.5,1,2,4,2,"ya","A",166.54699999094,222.061000004411,66.6190000027418,0,373.804666673144,233.164999991655,127.686499997973,177.649999991059,166.54699999094,222.061000004411,66.6190000027418,0,1121.41400001943,466.329999983311,255.372999995947,177.649999991059,1,1,1,0,3,2,2,1
3,"poor",8,1,9.34794324559,7,23,0.022,8,4,0.014,1,2,1,1,8,4,25,25,20,35,22.5,30,1,6,5,5,"xb","B",255.372500002384,558.85833332936,199.856000006199,0,359.742199999094,355.301285711782,188.75300000608,0,510.745000004768,1676.57499998808,199.856000006199,0,1798.71099999547,2487.10899998248,188.75300000608,0,2,3,1,0,5,7,1,0
3,"poor",9,0,3.84447256257,7,23,0.115,15,10,0.066,1,1,0,1,24,3,25,35,20,30,22.5,32.5,1,3,3,5,"pb","B",155.443999990821,140.640000000596,155.444000005722,188.754000008106,307.185999999444,208.183249995112,0,0,155.443999990821,421.920000001788,310.888000011444,188.754000008106,921.557999998331,832.73299998045,0,0,1,3,2,1,3,4,0,0
3,"poor",10,1,2.42984937009,16,13,0.019,13,33,0.026,0,1,1,1,46,4,40,35,25,40,32.5,37.5,0,2,3,2,"yb","B",205.407500006258,433.021999999881,0,0,133.237999990582,188.752500005066,111.030999995768,55.5160000026226,410.815000012517,433.021999999881,0,0,133.237999990582,377.505000010133,222.061999991536,55.5160000026226,2,1,0,0,1,2,2,1
3,"poor",11,1,3.92469667886,5,2,0.061,9,29,0.036,1,2,0,1,47,3,25,30,15,30,20,30,1,3,4,0,"pa","A",247.969666664799,288.680999994278,0,0,185.978250000626,410.816500000656,0,0,743.908999994397,288.680999994278,0,0,743.913000002503,821.633000001311,0,0,3,1,0,0,4,2,0,0
3,"poor",12,0,2.7240520245,7,23,0.032,11,5,0.024,1,1,0,1,53,3,25,30,20,20,22.5,25,1,2,1,2,"pa","A",233.166499994695,99.929000005126,0,122.134000003338,333.093499995768,205.407499998808,0,0,466.33299998939,99.929000005126,0,122.134000003338,666.186999991536,410.814999997616,0,0,2,1,0,1,2,2,0,0
3,"poor",13,1,3.00904477671,2,1,0.023,16,13,0.014,1,1,1,1,32,4,15,40,15,25,15,32.5,1,2,2,3,"pa","A",349.748999997973,199.856499999762,122.134000003338,0,233.165999993682,199.857500001788,177.650999993086,155.443999990821,699.497999995947,399.712999999523,122.134000003338,0,233.165999993682,399.715000003576,177.650999993086,155.443999990821,2,2,1,0,1,2,1,1
3,"poor",14,0,3.67757446163,13,33,0.068,14,3,0.058,1,2,1,1,5,4,35,35,40,20,37.5,27.5,1,1,1,5,"pa","A",111.030499994755,349.749000005424,0,199.854999989271,355.297999992967,260.923000000417,0,238.717000000179,222.06099998951,699.498000010848,0,199.854999989271,355.297999992967,521.846000000834,0,477.434000000358,2,2,0,1,1,2,0,2
3,"poor",15,1,3.39707888565,7,23,0.024,13,33,0.019,1,1,0,1,1,3,25,35,20,40,22.5,37.5,3,3,2,1,"pb","B",199.857000000775,111.031000003219,277.578999996185,188.754000008106,284.981000001232,272.027000010014,0,0,399.71400000155,222.062000006437,277.578999996185,188.754000008106,854.943000003695,544.054000020027,0,0,2,2,1,1,3,2,0,0
3,"poor",16,0,9.2668702291,8,4,0.025,2,1,0.045,0,1,1,0,56,2,25,15,35,15,30,15,1,7,2,2,"xb","B",266.475000008941,255.37199999392,155.443999990821,0,650.643799999356,586.244599997997,0,0,266.475000008941,510.743999987841,155.443999990821,0,3253.21899999678,2931.22299998999,0,0,1,2,1,0,5,5,0,0
3,"poor",17,0,2.59375941991,3,19,0.105,17,14,0.071,1,1,0,1,35,3,15,40,30,20,22.5,30,1,1,1,2,"xa","A",0,532.950999990106,266.476000010967,133.237000003457,294.233000010252,166.548000007868,0,0,0,532.950999990106,266.476000010967,133.237000003457,588.466000020504,166.548000007868,0,0,0,1,1,1,2,1,0,0
3,"poor",18,1,1.47994999689,15,10,0.02,10,17,0.029,0,2,0,1,19,3,35,30,30,30,32.5,30,0,2,0,0,"xa","A",0,0,0,0,233.165500000119,544.054000005126,0,0,0,0,0,0,466.331000000238,544.054000005126,0,0,0,0,0,0,2,1,0,0
3,"poor",19,1,13.4355054724,14,3,0.028,11,5,0.039,0,2,0,0,20,1,35,30,20,20,27.5,25,4,4,3,4,"xb","B",396.011999999483,466.332000002265,0,0,1215.79449999705,546.275400000811,111.031000003219,0,1188.03599999845,1865.32800000906,0,0,4863.1779999882,2731.37700000405,111.031000003219,0,3,4,0,0,4,5,1,0
3,"poor",20,0,4.36880640865,5,2,0.014,6,0,0.01,1,2,0,0,18,1,25,25,15,20,20,22.5,1,2,1,2,"xa","A",0,177.649000003934,388.611000001431,266.475999996066,288.681000001729,288.681499987841,210.960000008345,0,0,177.649000003934,388.611000001431,266.475999996066,577.362000003457,577.362999975681,210.960000008345,0,0,1,1,1,2,2,1,0
3,"poor",21,1,5.38924207397,8,4,0.018,4,11,0.031,0,1,1,0,4,2,25,20,35,15,30,17.5,3,2,4,3,"xb","B",88.8255000039935,355.301000013947,347.899333332976,249.822500005364,321.991499997675,255.372666666905,0,0,177.651000007987,355.301000013947,1043.69799999893,499.645000010729,643.982999995351,766.118000000715,0,0,2,1,3,2,2,3,0,0
3,"poor",22,1,4.66322904568,9,29,0.023,4,11,0.037,0,2,0,0,57,1,30,20,30,15,30,17.5,2,0,6,3,"pa","A",244.269333337744,270.17566666007,277.578999996185,0,196.155999993285,266.475500002503,127.686000004411,0,732.808000013232,810.526999980211,277.578999996185,0,588.467999979854,532.951000005007,255.372000008821,0,3,3,1,0,3,2,2,0
3,"poor",23,0,2.99048589008,10,17,0.103,14,3,0.086,1,1,1,1,54,4,30,35,30,20,30,27.5,1,1,1,3,"ya","A",188.752000004053,183.20150000602,0,222.063000008464,355.300999999046,188.752999991179,283.130499996245,366.401999995112,188.752000004053,366.40300001204,0,222.063000008464,355.300999999046,188.752999991179,566.26099999249,366.401999995112,1,2,0,1,1,1,2,1
3,"poor",24,0,1.46028787247,2,1,0.066,1,21,0.08,0,2,0,0,58,1,15,15,15,10,15,12.5,0,0,0,2,"pb","B",0,77.7219999954104,0,0,277.577999994159,444.125,0,0,0,155.443999990821,0,0,277.577999994159,444.125,0,0,0,2,0,0,1,1,0,0
3,"poor",25,1,10.2448808326,2,1,0.032,4,11,0.016,1,1,1,0,9,2,15,20,15,15,15,17.5,1,10,1,0,"qa","A",299.783999994397,0,299.785000003874,299.785000011325,573.661166665455,491.710428572127,0,0,299.783999994397,0,599.570000007749,299.785000011325,3441.96699999273,3441.97300000489,0,0,1,0,2,1,6,7,0,0
3,"poor",26,1,3.59237081422,10,17,0.029,14,3,0.023,1,1,0,0,31,1,30,35,30,20,30,27.5,1,0,2,0,"qa","A",277.57800000906,444.123999997973,144.339999988675,0,355.302000001073,0,66.6190000027418,0,277.57800000906,444.123999997973,144.339999988675,0,355.302000001073,0,66.6190000027418,0,1,1,1,0,1,0,1,0
3,"poor",27,0,2.49501381956,14,3,0.028,2,1,0.045,0,2,1,0,55,2,35,15,20,15,27.5,15,1,1,1,1,"pb","B",0,55.5160000026226,88.8250000029802,199.857000008225,388.611000001431,810.527999997139,0,0,0,55.5160000026226,177.65000000596,199.857000008225,388.611000001431,810.527999997139,0,0,0,1,2,1,1,1,0,0
3,"poor",28,1,3.68339707472,17,14,0.006,2,1,0.013,0,1,0,0,15,1,40,15,20,15,30,15,2,2,4,1,"pb","B",155.444333334764,272.026999995112,0,0,144.340499997139,433.020999997854,333.095499992371,266.47499999404,466.333000004292,544.053999990225,0,0,288.680999994278,433.020999997854,666.190999984741,266.47499999404,3,2,0,0,2,1,2,1
3,"poor",29,1,1.92535496441,17,14,0.029,8,4,0.046,0,1,0,1,40,3,40,25,20,35,30,30,1,3,0,1,"pa","A",99.9280000030994,99.929000005126,0,0,166.546499997377,344.196999996901,0,0,99.9280000030994,99.929000005126,0,0,333.092999994755,688.393999993801,0,0,1,1,0,0,2,2,0,0
3,"poor",30,0,4.78730894205,3,19,0.081,5,2,0.047,1,2,0,1,27,3,15,25,30,15,22.5,20,0,2,2,2,"pb","B",310.888999998569,244.269500002265,244.268999993801,0,494.090000003576,977.077499993145,0,0,310.888999998569,488.53900000453,244.268999993801,0,988.180000007153,1954.15499998629,0,0,1,2,1,0,2,2,0,0
3,"poor",31,0,6.66624036952,5,2,0.064,11,5,0.032,1,2,0,0,37,1,25,30,15,20,20,25,0,2,10,3,"pa","A",212.809833332896,288.682000003755,0,0,216.511333331466,281.279000004133,222.061999991536,0,1276.85899999738,577.36400000751,0,0,1299.06799998879,843.837000012398,222.061999991536,0,6,2,0,0,6,3,1,0
3,"poor",32,1,1.55183721508,5,2,0.014,12,18,0.008,1,1,0,1,64,3,25,30,15,35,20,32.5,1,1,1,1,"xa","A",244.269000008702,133.238000005484,0,0,144.340999998152,366.402999997139,0,0,244.269000008702,133.238000005484,0,0,288.681999996305,366.402999997139,0,0,1,1,0,0,2,1,0,0
3,"poor",33,1,9.28746298529,7,23,0.029,13,33,0.02,1,2,0,0,38,1,25,35,20,40,22.5,37.5,1,6,3,2,"pb","B",122.134500004351,172.099499993026,0,0,1099.21174999699,588.466750003397,222.063999995589,0,244.269000008702,344.198999986053,0,0,4396.84699998796,2353.86700001359,222.063999995589,0,2,2,0,0,4,4,1,0
3,"poor",34,0,4.2728845651,4,11,0.017,11,5,0.008,1,2,1,1,11,4,20,30,15,20,17.5,25,1,3,3,1,"xa","A",166.547000005841,166.545999988914,77.722000002861,0,521.847666660945,299.784000001848,166.54699999094,0,166.547000005841,166.545999988914,77.722000002861,0,1565.54299998283,599.568000003695,166.54699999094,0,1,1,1,0,3,2,1,0
3,"poor",35,1,17.3246993386,15,10,0.009,8,4,0.011,0,2,1,0,44,2,35,25,30,35,32.5,30,4,5,21,8,"xa","A",229.993857141052,277.579000001152,225.76416666309,230.945599997044,402.742090910673,375.656999995311,270.917600005865,144.340000003576,1609.95699998736,832.737000003457,1354.58499997854,1154.72799998522,4430.1630000174,2253.94199997187,1354.58800002933,144.340000003576,7,3,6,5,11,6,5,1
3,"poor",36,1,2.74545821772,17,14,0.016,2,1,0.037,0,1,1,0,52,2,40,15,20,15,30,15,0,1,1,0,"pa","A",55.5159999877214,0,111.031000003219,0,210.959000006318,1732.0909999907,0,0,55.5159999877214,0,111.031000003219,0,210.959000006318,1732.0909999907,0,0,1,0,1,0,1,1,0,0
3,"poor",37,1,4.13339701932,15,10,0.053,9,29,0.059,0,2,0,1,30,3,35,30,30,30,32.5,30,1,1,3,0,"xb","B",127.686000004411,210.960000008345,299.78599999845,0,388.610500007868,321.993000000715,0,0,255.372000008821,210.960000008345,299.78599999845,0,777.221000015736,321.993000000715,0,0,2,1,1,0,2,1,0,0
3,"poor",38,1,2.39322281747,17,14,0.011,3,19,0.02,0,1,0,0,34,1,40,15,20,30,30,22.5,1,0,2,1,"xa","A",199.855999991298,188.754000008106,0,0,510.744000002742,333.092999994755,199.856000006199,0,399.711999982595,188.754000008106,0,0,510.744000002742,333.092999994755,199.856000006199,0,2,1,0,0,1,1,1,0
3,"poor",39,1,1.92213834192,12,18,0.009,2,1,0.017,0,2,0,0,25,1,30,15,35,15,32.5,15,0,0,2,1,"ya","A",149.892000004649,233.165000006557,0,0,277.579000011086,444.126000002027,55.515000000596,0,299.784000009298,233.165000006557,0,0,277.579000011086,444.126000002027,55.515000000596,0,2,1,0,0,1,1,1,0
3,"poor",40,1,2.75055522063,7,23,0.024,2,1,0.031,0,2,1,0,50,2,25,15,20,15,22.5,15,1,2,3,2,"xb","B",199.856999993324,155.445000007749,116.583499997854,0,222.063000008464,377.506999999285,122.134000003338,133.237999990582,199.856999993324,155.445000007749,233.166999995708,0,222.063000008464,755.013999998569,122.134000003338,133.237999990582,1,1,2,0,1,2,1,1
3,"poor",41,1,1.44472673393,5,2,0.007,3,19,0.012,0,2,1,0,60,2,25,15,15,30,20,22.5,1,0,2,1,"xb","B",177.65000000596,144.341999992728,99.929000005126,0,133.237999990582,410.818000003695,0,0,177.65000000596,144.341999992728,99.929000005126,0,133.237999990582,410.818000003695,0,0,1,1,1,0,1,1,0,0
3,"poor",42,1,4.07634089659,11,5,0.016,6,0,0.021,0,2,1,0,17,2,30,25,20,20,25,22.5,1,1,1,0,"xb","B",222.061999991536,133.237000003457,0,0,227.613999992609,355.298999994993,355.300999999046,0,222.061999991536,133.237000003457,0,0,455.227999985218,710.597999989986,355.300999999046,0,1,1,0,0,2,2,1,0
3,"poor",43,1,8.63099383384,15,10,0.027,12,18,0.03,0,1,0,0,29,1,35,30,30,35,32.5,32.5,4,3,4,4,"xa","A",269.250750005245,188.754249997437,0,0,695.797666668892,266.47500000149,194.305500000715,0,1077.00300002098,755.016999989748,0,0,2087.39300000668,1065.90000000596,388.611000001431,0,4,4,0,0,3,4,2,0
3,"poor",44,1,4.41810883653,15,10,0.026,7,23,0.047,0,2,0,1,21,3,35,25,30,20,32.5,22.5,1,2,0,0,"pa","A",199.857000008225,233.165999993682,0,0,1365.68649999797,444.125,0,0,199.857000008225,233.165999993682,0,0,2731.37299999595,444.125,0,0,1,1,0,0,2,1,0,0
3,"poor",45,0,2.73118123465,17,14,0.01,1,21,0.021,0,2,0,1,39,3,40,15,20,10,30,12.5,0,1,1,1,"qa","A",0,144.33900000155,55.515000000596,0,383.057999998331,1165.82600000501,0,0,0,144.33900000155,55.515000000596,0,766.115999996662,1165.82600000501,0,0,0,1,1,0,2,1,0,0
3,"poor",46,1,2.34130664136,3,19,0.018,13,33,0.01,1,2,0,1,13,3,15,35,30,40,22.5,37.5,1,1,2,1,"qa","A",210.959999993443,144.340000003576,277.577000007033,0,277.576999992132,388.608000010252,166.54699999094,0,210.959999993443,144.340000003576,277.577000007033,0,277.576999992132,388.608000010252,166.54699999094,0,1,1,1,0,1,1,1,0
3,"poor",47,0,2.88487345181,14,3,0.01,2,1,0.017,0,1,1,1,2,4,35,15,20,15,27.5,15,0,2,4,2,"xa","A",172.098500005901,288.682999998331,0,0,210.960000008345,388.611000001431,249.821499995887,144.340000003576,344.197000011802,288.682999998331,0,0,421.920000016689,388.611000001431,499.642999991775,144.340000003576,2,1,0,0,2,1,2,1
3,"poor",48,1,1.76841093862,9,29,0.009,5,2,0.017,0,2,0,1,51,3,30,25,30,15,30,20,1,0,1,1,"pa","A",55.515000000596,88.8250000029802,0,0,222.061999991536,166.548000007868,199.856999993324,0,55.515000000596,88.8250000029802,0,0,222.061999991536,166.548000007868,199.856999993324,0,1,1,0,0,1,1,1,0
3,"poor",49,0,3.68464244234,3,19,0.009,14,3,0.004,1,1,0,1,61,3,15,35,30,20,22.5,27.5,2,2,0,1,"pa","A",160.996000006795,560.708499997854,0,0,383.059000000358,266.475500002503,0,0,321.99200001359,1121.41699999571,0,0,766.118000000715,532.951000005007,0,0,2,2,0,0,2,2,0,0
3,"poor",50,0,12.3284958397,11,5,0.067,15,10,0.041,1,2,1,0,22,2,30,35,20,30,25,32.5,3,5,12,8,"pa","A",336.795666667322,510.746000001828,210.959500007331,149.892000004649,316.439999995753,396.012833334506,244.268000006676,244.270000010729,2020.77400000393,1532.23800000548,421.919000014663,299.784000009298,2531.51999996603,2376.07700000703,244.268000006676,244.270000010729,6,3,2,2,8,6,1,1
3,"poor",51,0,3.95256160622,5,2,0.042,12,18,0.021,1,1,1,0,33,2,25,30,15,35,20,32.5,0,2,1,1,"qb","B",299.784999996424,0,0,55.5160000026226,471.885499998927,277.579000003636,0,0,299.784999996424,0,0,55.5160000026226,943.770999997854,555.158000007272,0,0,1,0,0,1,2,2,0,0
3,"poor",52,0,10.4967919662,12,18,0.011,1,21,0.019,0,1,1,0,14,2,30,15,35,10,32.5,12.5,1,7,3,1,"xa","A",155.443000003695,266.475000008941,177.65000000596,155.443999990821,514.444833328327,755.014249999076,0,0,155.443000003695,266.475000008941,355.300000011921,155.443999990821,3086.66899996996,3020.0569999963,0,0,1,1,2,1,6,4,0,0
3,"poor",53,0,3.62879816345,4,11,0.058,17,14,0.029,1,1,1,1,26,4,20,40,15,20,17.5,30,3,2,3,3,"qa","A",151.743666668733,255.372499994934,160.995499998331,155.442999988794,205.407999999821,321.989999994636,0,194.304500006139,455.231000006199,510.744999989867,321.990999996662,155.442999988794,410.815999999642,321.989999994636,0,388.609000012279,3,2,2,1,2,1,0,2
3,"poor",54,1,5.75200810334,15,10,0.013,7,23,0.025,0,2,0,0,42,1,35,25,30,20,32.5,22.5,2,1,3,4,"pb","B",172.099000006914,540.353000000119,0,177.65000000596,310.88750000298,1154.72500000894,88.8250000029802,310.887999996543,344.198000013828,1621.05900000036,0,177.65000000596,621.77500000596,1154.72500000894,88.8250000029802,310.887999996543,2,3,0,1,2,1,1,1
3,"poor",55,0,3.70601815937,5,2,0.086,11,5,0.056,1,1,1,1,3,4,25,30,15,20,20,25,1,3,3,1,"xa","A",199.856499999762,216.51099999249,299.78599999845,0,114.732333337267,283.130499996245,99.9280000030994,0,399.712999999523,433.02199998498,299.78599999845,0,344.197000011802,566.26099999249,99.9280000030994,0,2,2,1,0,3,2,1,0
3,"poor",56,1,2.63997156295,6,0,0.005,5,2,0.007,0,2,1,0,49,2,25,25,20,15,22.5,20,0,0,2,2,"ya","A",177.649999991059,99.9280000030994,166.547000005841,0,244.269999995828,560.709500007331,55.515000000596,0,177.649999991059,99.9280000030994,166.547000005841,0,244.269999995828,1121.41900001466,55.515000000596,0,1,1,1,0,1,2,1,0
3,"poor",57,1,6.90562717766,16,13,0.011,12,18,0.022,0,2,0,0,43,1,40,30,25,35,32.5,32.5,2,1,5,2,"pa","A",131.017000001669,216.511000007391,0,0,225.763999993602,1865.32749999315,0,0,655.085000008345,433.022000014782,0,0,677.291999980807,3730.65499998629,0,0,5,2,0,0,3,2,0,0
3,"poor",58,1,2.11351657461,5,2,0.046,16,13,0.029,1,2,1,0,59,2,25,40,15,25,20,32.5,0,1,3,0,"xa","A",188.753999993205,0,99.9280000030994,0,194.304500006139,577.363999992609,188.75300000608,0,188.753999993205,0,99.9280000030994,0,388.609000012279,577.363999992609,188.75300000608,0,1,0,1,0,2,1,1,0
3,"poor",59,0,1.73478961461,11,5,0.073,15,10,0.038,1,1,1,1,7,4,30,35,20,30,25,32.5,0,1,1,1,"pb","B",111.032999992371,410.819000005722,0,0,66.6190000027418,155.445000007749,0,0,111.032999992371,410.819000005722,0,0,66.6190000027418,155.445000007749,0,0,1,1,0,0,1,1,0,0
3,"rich",0,1,7.46017344826,7,26,0.018,4,34,0.032,0,1,0,1,23,3,75,70,65,55,70,62.5,2,6,4,4,"pa","A",240.567999998728,444.125500001013,144.340999998152,199.856000006199,374.729750003666,430.801600000262,0,0,721.703999996185,888.251000002027,288.681999996305,199.856000006199,1498.91900001466,2154.00800000131,0,0,3,2,2,1,4,5,0,0
3,"rich",1,0,1.9169332871,11,42,0.056,17,22,0.041,1,1,1,0,64,2,100,100,100,95,100,97.5,0,1,2,2,"qb","B",0,144.341000005603,166.547000005841,199.856999993324,399.712999999523,233.165999993682,133.238999992609,0,0,144.341000005603,166.547000005841,199.856999993324,399.712999999523,233.165999993682,133.238999992609,0,0,1,1,1,1,1,1,0
3,"rich",2,0,2.41602814448,13,43,0.028,6,12,0.036,0,1,1,0,46,2,100,75,100,55,100,65,1,1,3,1,"qa","A",0,0,192.453333333135,166.545999988914,277.578500002623,410.815999999642,0,0,0,0,577.359999999404,166.545999988914,555.157000005245,410.815999999642,0,0,0,0,3,1,2,1,0,0
3,"rich",3,1,7.40987140159,6,12,0.013,4,34,0.024,0,2,1,1,24,4,75,70,55,55,65,62.5,1,4,7,4,"qa","A",222.062000006437,188.754500001669,333.093999996781,111.030999988317,377.506999999285,347.898666669925,318.289666677515,177.65000000596,222.062000006437,377.509000003338,666.187999993563,111.030999988317,1887.53499999642,1043.69600000978,954.869000032544,177.65000000596,1,2,2,1,5,3,3,1
3,"rich",4,0,4.45508254059,1,40,0.041,3,16,0.021,1,2,0,1,63,3,65,70,40,50,52.5,60,2,3,0,3,"xa","A",288.681999996305,144.341499999166,0,355.29999999702,181.352333332101,636.581000000238,0,0,288.681999996305,288.682999998331,0,355.29999999702,544.056999996305,1909.74300000072,0,0,1,2,0,1,3,3,0,0
3,"rich",5,1,4.90092470277,16,44,0.022,13,43,0.03,0,1,1,1,33,4,100,100,100,100,100,100,1,3,3,3,"qb","B",155.443999990821,216.51099999994,122.134000003338,144.341000005603,299.78599999845,266.47499999404,122.134666671356,249.820000000298,155.443999990821,433.021999999881,122.134000003338,144.341000005603,299.78599999845,266.47499999404,366.404000014067,499.640000000596,1,2,1,1,1,1,3,2
3,"rich",6,0,4.74483788888,3,16,0.067,8,9,0.034,1,1,0,1,40,3,70,85,50,40,60,62.5,2,4,1,2,"pa","A",344.197000004351,260.92349999398,0,0,425.620666662852,351.600666667024,0,0,688.394000008702,521.84699998796,0,0,1276.86199998856,1054.80200000107,0,0,2,2,0,0,3,3,0,0
3,"rich",7,0,3.39940532658,9,31,0.037,12,20,0.034,1,2,1,1,59,4,100,100,100,95,100,97.5,1,0,7,1,"qb","B",136.937666669488,166.546000003815,144.339999996126,55.5139999985695,249.817999988794,566.256999999285,166.546000003815,0,410.813000008464,166.546000003815,288.679999992251,55.5139999985695,499.635999977589,566.256999999285,333.092000007629,0,3,1,2,1,2,1,2,0
3,"rich",8,1,5.28303922893,8,9,0.014,7,26,0.022,0,2,1,1,15,4,85,75,40,65,62.5,70,3,1,8,1,"pa","A",239.82840000093,183.202500008047,138.789499998093,0,755.016000002623,388.610999986529,148.042666663726,0,1199.14200000465,366.405000016093,277.578999996185,0,755.016000002623,388.610999986529,444.127999991179,0,5,2,2,0,1,1,3,0
3,"rich",9,1,5.01183168503,15,38,0.066,7,26,0.115,0,1,0,1,41,3,100,75,100,65,100,70,2,2,4,2,"qa","A",255.372999995947,233.167499996722,177.651499994099,277.581000000238,310.88900000602,172.099499993026,210.958000004292,0,255.372999995947,466.334999993443,355.302999988198,277.581000000238,1243.55600002408,344.198999986053,210.958000004292,0,1,2,2,1,4,2,1,0
3,"rich",10,0,14.0489217527,13,43,0.026,16,44,0.019,1,1,1,1,25,4,100,100,100,100,100,100,3,4,5,5,"qb","B",177.64999999851,1532.2337500006,0,144.341999992728,266.475200003386,668.965249996632,321.991999998689,155.443000003695,710.59999999404,6128.93500000238,0,144.341999992728,1332.37600001693,2675.86099998653,321.991999998689,155.443000003695,4,4,0,1,5,4,1,1
3,"rich",11,0,3.76613686133,9,31,0.036,5,37,0.061,0,2,0,1,60,3,100,70,100,35,100,52.5,1,2,3,5,"qa","A",183.201999999583,99.9289999902248,55.516999989748,194.305000007153,199.856000001232,262.774333328009,0,188.752999991179,366.403999999166,99.9289999902248,55.516999989748,388.610000014305,599.568000003695,788.322999984026,0,188.752999991179,2,1,1,2,3,3,0,1
3,"rich",12,1,6.29562450683,11,42,0.024,7,26,0.032,0,1,0,1,51,3,100,75,100,65,100,70,0,7,1,2,"xb","B",0,255.372000008821,66.6190000027418,0,582.914999999106,488.539200001955,0,0,0,255.372000008821,66.6190000027418,0,2331.65999999642,2442.69600000978,0,0,0,1,1,0,4,5,0,0
3,"rich",13,1,3.30364833145,2,8,0.023,16,44,0.014,1,1,1,1,19,4,65,100,50,100,57.5,100,1,1,3,1,"qb","B",77.7219999879599,122.133999988437,155.444000005722,377.506999999285,249.819500006735,388.609999999404,377.506999999285,0,77.7219999879599,122.133999988437,155.444000005722,377.506999999285,499.639000013471,388.609999999404,377.506999999285,0,1,1,1,1,2,1,1,0
